rt,responses,trial_type,time_elapsed,surveydata,success,stimulus,key_press,perf,bonus,detectfocus,,,,,,,,,,,
9118.60000038147,{},survey-html-new,9121,block,Tequila,,,,,,,,,,,,,,,,
6644.700000762940,{worker_id:5f401654692cc6106c75f575},id_enter,15769,,,,,,,,,,,,,,,,,,
,,fullscreen,18169,,TRUE,,,,,,,,,,,,,,,,
26080.30000114440,,intro_1,44251,,,<div style='margin-left:300px ;margin-right: 300px ;text-justify: auto'><p><b>Welcome!</b></p><p>You're rummaging through a house to find photographs to sell. You look for photographs in six rooms.</p><p> In each room, you find a stack of photographs which have a center image and a background scene. The background scene represents where the photograph was taken. Each image was photographed in its own unique location, so please use the scenes as a guide when learning about each image. Later, you will be asked to choose beteween two images. Make sure to pay attention to the images and where they were photographed. Each image is photographed in a unique location. As you're going through the stack, you're told the resale value for each photograph.</p><p>[press the spacebar to continue]</p>,32,,,,,,,,,,
55736.10000038150,,intro_2,99989,,,<div style='margin-left:300px ;margin-right: 300px ;text-justify: auto'><p>The photographs in each room are from one or more collections, <b>each collection has its own average resale value</b>. Each collection is more or less valuable on average, though each photograph has its own individual value. For instance,you might have a run of photographs that are worth $0.55 on average,followed by a run that are worth $0.15 on average, but the actual values of each photograph will range around those averages.</p><p>So when you're going through the stack, <b>you might find that the resale values suddenly jump up or down</b>. This means that you're in a different collection, one that is more or less valuable. You may go through several collections in one room (although you will go through each collection one at a time). </p><p><b>You should pay attention to the values of each photograph.</b> At the end of the room, you will get to choose between two photographs and will be tested on which one is more valuable. If you make the right choice, you'll get double your commission for that photograph. The photographs you'll be tested on might come from different collections, or from the same collection, so pay attention!</p><p>[press the spacebar to continue]</p></div>,32,,,
15542.30000114440,,intro_3,115532,,,<div style='margin-left:300px ;margin-right: 300px ;text-justify: auto'><p>Finally, to make sure you remember which photographs you found in each room, you'll be tested for your memory. You'll see a series of photographs, some of which are ones you saw in this room, and some of which you haven't seen. You will be asked to distinguish which ones are new (you haven't seen before), versus which ones are old (you saw in this room).</p><p>Please respond as quickly and accurately as possible to the photographs you see in this section. Although we don't expect perfect memory, poor memory performance will decrease your earnings! </p><p>[press the spacebar to continue]</p></div>,32,,,,,,,,
23573.20000076290,,intro_4,139106,,,<div style='margin-left:300px ;margin-right: 300px ;text-justify: auto'><p>So,in total you will have three tasks in each room: <br> 1. Learn about and accumulate the values of the photographs,one at a time <br> 2. Choose between pairs of the photographs <br> 3. Pass a memory test on the photographs you've seen <br></p><p>To receive full payment, you will need to complete this experiment and submit it. In the case of an event that precludes you from completing the experiment, please return the HIT and do not submit it. In that case, please e-mail mnadkarn@uci.edu to be compensated for the time you did spend on the task. </p><p>[press the spacebar to continue]</p></div>,32,,,,,,,,,
26825.30000114440,{Q0:C,Q1:B,Q2:B},quiz_prac,165933,,,,,,,,,,,,,,,,
25409.10000038150,{},quiz_incorrect,191344,,,,,,,,,,,,,,,,,,
22860.10000038150,{Q0:C,Q1:B,Q2:C},quiz_prac,214206,,,,,,,,,,,,,,,,
1736.8999996185300,{},quiz_correct,215945,,,,,,,,,,,,,,,,,,
25064.60000038150,,intro_learn,241010,,,<div style='margin-left:300px ;margin-right: 300px;text-justify: auto'><p>Before beginning the real task, you will complete a short version of the experiment. </p><p>During this phase, you will view each photograph you pick up within the room. The photograph will appear on the screen,and after 1 second you will also see its resale value for 2 seconds. </p><p>You will receive a 10% commission on each photograph you pick up. Their values depend on the collection the photos belong to, some collections more or less valuable than others. You may go through several collections in one room (although you will go through each collection one at a time). </p><p><b>Remember both the photographs and their values.</b> You will get the chance to choose between two photographs, and if you make the right choice (the higher value photo), you'll get double your commission for that photograph. You will also be asked to remember the photographs in a memory test.</p><p>[press the spacebar to begin]</p></div>,32,,,,,,,,
null,,prac_learn_scene,242013,,,<p style='color: #ffffff'>jhjhj</p><br><br><p style='color: #ffffff'>jhjhj</p><img style='position:absolute;top: 50%;right: 50%;transform: translate(50%,-50%);z-score:-1;width: 450px;height: 450px;' src='../static/sis_landscape_images/background_236.jpg' height='250'><img style='position:absolute;top: 50%;right: 50%;transform: translate(50%,-50%);z-score:0;width: 250px;height: 250px;' src='../static/images/beverage_51.jpg' height='250'><style>body {background-color: #ffffff;}</style>,null,,,,,,,,,,,,
null,,prac_learn_sceneVal,244015,,,<img src='../static/images/28.png' style='position:absolute;top: 15%;right: 50%;transform: translate(50%,-50%);width: 300px;height: 140px;'><p style='color: #ffffff'>jhjhj</p><br><br><p style='color: #ffffff'>jhjhj</p><img style='position:absolute;top: 50%;right: 50%;transform: translate(50%,-50%);z-score:-1;width: 450px;height: 450px;' src='../static/sis_landscape_images/background_236.jpg' height='250'><img style='position:absolute;top: 50%;right: 50%;transform: translate(50%,-50%);z-score:0;width: 250px;height: 250px;' src='../static/images/beverage_51.jpg' height='250'><style>body {background-color: #ffffff;}</style>,null,,,,,,,,,,,
null,,prac_learn_scene,245018,,,<p style='color: #ffffff'>jhjhj</p><br><br><p style='color: #ffffff'>jhjhj</p><img style='position:absolute;top: 50%;right: 50%;transform: translate(50%,-50%);z-score:-1;width: 450px;height: 450px;' src='../static/sis_landscape_images/background_244.jpg' height='250'><img style='position:absolute;top: 50%;right: 50%;transform: translate(50%,-50%);z-score:0;width: 250px;height: 250px;' src='../static/images/beverage_36.jpg' height='250'><style>body {background-color: #ffffff;}</style>,null,,,,,,,,,,,,
null,,prac_learn_sceneVal,247020,,,<img src='../static/images/26.png' style='position:absolute;top: 15%;right: 50%;transform: translate(50%,-50%);width: 300px;height: 140px;'><p style='color: #ffffff'>jhjhj</p><br><br><p style='color: #ffffff'>jhjhj</p><img style='position:absolute;top: 50%;right: 50%;transform: translate(50%,-50%);z-score:-1;width: 450px;height: 450px;' src='../static/sis_landscape_images/background_244.jpg' height='250'><img style='position:absolute;top: 50%;right: 50%;transform: translate(50%,-50%);z-score:0;width: 250px;height: 250px;' src='../static/images/beverage_36.jpg' height='250'><style>body {background-color: #ffffff;}</style>,null,,,,,,,,,,,
null,,prac_learn,250023,,,<p style='color: #ffffff'>jhjhj</p><p style='color: #ffffff'>jhjhj<style>body {background-color: #ffffff;}</style><h1>Is the value of this scene higher than the last one?</h1><br><br><h1>Press '1' for lower,'2' for higher</h1>,null,,,,,,,,,,,,,
null,,warning_page,253026,,,<h1>Please make sure to respond to the questions.</h1><br><h1>Continued failure to respond will</h1><br><h1> result in the task ending early</h1><br><h1>The experiment will resume in 3 seconds</h1>,null,,,,,,,,,,,,,,
null,,prac_learn_scene,254029,,,<p style='color: #ffffff'>jhjhj</p><br><br><p style='color: #ffffff'>jhjhj</p><img style='position:absolute;top: 50%;right: 50%;transform: translate(50%,-50%);z-score:-1;width: 450px;height: 450px;' src='../static/sis_landscape_images/background_349.jpg' height='250'><img style='position:absolute;top: 50%;right: 50%;transform: translate(50%,-50%);z-score:0;width: 250px;height: 250px;' src='../static/images/beverage_197.jpg' height='250'><style>body {background-color: #ffffff;}</style>,null,,,,,,,,,,,,
null,,prac_learn_sceneVal,256031,,,<img src='../static/images/34.png' style='position:absolute;top: 15%;right: 50%;transform: translate(50%,-50%);width: 300px;height: 140px;'><p style='color: #ffffff'>jhjhj</p><br><br><p style='color: #ffffff'>jhjhj</p><img style='position:absolute;top: 50%;right: 50%;transform: translate(50%,-50%);z-score:-1;width: 450px;height: 450px;' src='../static/sis_landscape_images/background_349.jpg' height='250'><img style='position:absolute;top: 50%;right: 50%;transform: translate(50%,-50%);z-score:0;width: 250px;height: 250px;' src='../static/images/beverage_197.jpg' height='250'><style>body {background-color: #ffffff;}</style>,null,,,,,,,,,,,
1640.1000003814700,,prac_learn,259034,,,<p style='color: #ffffff'>jhjhj</p><p style='color: #ffffff'>jhjhj<style>body {background-color: #ffffff;}</style><h1>Is the value of this scene higher than the last one?</h1><br><br><h1>Press '1' for lower,'2' for higher</h1>,50,,,,,,,,,,,,,
null,,you_chose_higher,261048,,,<p style='color: #ffffff'>jhjhj</p><p style='color: #ffffff'>jhjhj<style>body {background-color: #ffffff;}</style><h1>You chose higher</h1>,null,,,,,,,,,,,,,,
null,,prac_learn_scene,262050,,,<p style='color: #ffffff'>jhjhj</p><br><br><p style='color: #ffffff'>jhjhj</p><img style='position:absolute;top: 50%;right: 50%;transform: translate(50%,-50%);z-score:-1;width: 450px;height: 450px;' src='../static/sis_landscape_images/background_350.jpg' height='250'><img style='position:absolute;top: 50%;right: 50%;transform: translate(50%,-50%);z-score:0;width: 250px;height: 250px;' src='../static/images/beverage_217.jpg' height='250'><style>body {background-color: #ffffff;}</style>,null,,,,,,,,,,,,
null,,prac_learn_sceneVal,264053,,,<img src='../static/images/33.png' style='position:absolute;top: 15%;right: 50%;transform: translate(50%,-50%);width: 300px;height: 140px;'><p style='color: #ffffff'>jhjhj</p><br><br><p style='color: #ffffff'>jhjhj</p><img style='position:absolute;top: 50%;right: 50%;transform: translate(50%,-50%);z-score:-1;width: 450px;height: 450px;' src='../static/sis_landscape_images/background_350.jpg' height='250'><img style='position:absolute;top: 50%;right: 50%;transform: translate(50%,-50%);z-score:0;width: 250px;height: 250px;' src='../static/images/beverage_217.jpg' height='250'><style>body {background-color: #ffffff;}</style>,null,,,,,,,,,,,
789.1999988555910,,prac_learn,267055,,,<p style='color: #ffffff'>jhjhj</p><p style='color: #ffffff'>jhjhj<style>body {background-color: #ffffff;}</style><h1>Is the value of this scene higher than the last one?</h1><br><br><h1>Press '1' for lower,'2' for higher</h1>,49,,,,,,,,,,,,,
null,,you_chose_lower,269057,,,<p style='color: #ffffff'>jhjhj</p><p style='color: #ffffff'>jhjhj<style>body {background-color: #ffffff;}</style><h1>You chose lower</h1>,null,,,,,,,,,,,,,,
null,,prac_learn_scene,270059,,,<p style='color: #ffffff'>jhjhj</p><br><br><p style='color: #ffffff'>jhjhj</p><img style='position:absolute;top: 50%;right: 50%;transform: translate(50%,-50%);z-score:-1;width: 450px;height: 450px;' src='../static/sis_landscape_images/background_335.jpg' height='250'><img style='position:absolute;top: 50%;right: 50%;transform: translate(50%,-50%);z-score:0;width: 250px;height: 250px;' src='../static/images/beverage_147.jpg' height='250'><style>body {background-color: #ffffff;}</style>,null,,,,,,,,,,,,
null,,prac_learn_sceneVal,272061,,,<img src='../static/images/27.png' style='position:absolute;top: 15%;right: 50%;transform: translate(50%,-50%);width: 300px;height: 140px;'><p style='color: #ffffff'>jhjhj</p><br><br><p style='color: #ffffff'>jhjhj</p><img style='position:absolute;top: 50%;right: 50%;transform: translate(50%,-50%);z-score:-1;width: 450px;height: 450px;' src='../static/sis_landscape_images/background_335.jpg' height='250'><img style='position:absolute;top: 50%;right: 50%;transform: translate(50%,-50%);z-score:0;width: 250px;height: 250px;' src='../static/images/beverage_147.jpg' height='250'><style>body {background-color: #ffffff;}</style>,null,,,,,,,,,,,
929,,prac_learn,275064,,,<p style='color: #ffffff'>jhjhj</p><p style='color: #ffffff'>jhjhj<style>body {background-color: #ffffff;}</style><h1>Is the value of this scene higher than the last one?</h1><br><br><h1>Press '1' for lower,'2' for higher</h1>,49,,,,,,,,,,,,,
null,,you_chose_lower,277067,,,<p style='color: #ffffff'>jhjhj</p><p style='color: #ffffff'>jhjhj<style>body {background-color: #ffffff;}</style><h1>You chose lower</h1>,null,,,,,,,,,,,,,,
null,,prac_learn_scene,278068,,,<p style='color: #ffffff'>jhjhj</p><br><br><p style='color: #ffffff'>jhjhj</p><img style='position:absolute;top: 50%;right: 50%;transform: translate(50%,-50%);z-score:-1;width: 450px;height: 450px;' src='../static/sis_landscape_images/background_223.jpg' height='250'><img style='position:absolute;top: 50%;right: 50%;transform: translate(50%,-50%);z-score:0;width: 250px;height: 250px;' src='../static/images/beverage_171.jpg' height='250'><style>body {background-color: #ffffff;}</style>,null,,,,,,,,,,,,
null,,prac_learn_sceneVal,280071,,,<img src='../static/images/32.png' style='position:absolute;top: 15%;right: 50%;transform: translate(50%,-50%);width: 300px;height: 140px;'><p style='color: #ffffff'>jhjhj</p><br><br><p style='color: #ffffff'>jhjhj</p><img style='position:absolute;top: 50%;right: 50%;transform: translate(50%,-50%);z-score:-1;width: 450px;height: 450px;' src='../static/sis_landscape_images/background_223.jpg' height='250'><img style='position:absolute;top: 50%;right: 50%;transform: translate(50%,-50%);z-score:0;width: 250px;height: 250px;' src='../static/images/beverage_171.jpg' height='250'><style>body {background-color: #ffffff;}</style>,null,,,,,,,,,,,
475.20000076293900,,prac_learn,283073,,,<p style='color: #ffffff'>jhjhj</p><p style='color: #ffffff'>jhjhj<style>body {background-color: #ffffff;}</style><h1>Is the value of this scene higher than the last one?</h1><br><br><h1>Press '1' for lower,'2' for higher</h1>,50,,,,,,,,,,,,,
null,,you_chose_higher,285075,,,<p style='color: #ffffff'>jhjhj</p><p style='color: #ffffff'>jhjhj<style>body {background-color: #ffffff;}</style><h1>You chose higher</h1>,null,,,,,,,,,,,,,,
null,,prac_learn_scene,286078,,,<p style='color: #ffffff'>jhjhj</p><br><br><p style='color: #ffffff'>jhjhj</p><img style='position:absolute;top: 50%;right: 50%;transform: translate(50%,-50%);z-score:-1;width: 450px;height: 450px;' src='../static/sis_landscape_images/background_238.jpg' height='250'><img style='position:absolute;top: 50%;right: 50%;transform: translate(50%,-50%);z-score:0;width: 250px;height: 250px;' src='../static/images/beverage_107.jpg' height='250'><style>body {background-color: #ffffff;}</style>,null,,,,,,,,,,,,
null,,prac_learn_sceneVal,288080,,,<img src='../static/images/58.png' style='position:absolute;top: 15%;right: 50%;transform: translate(50%,-50%);width: 300px;height: 140px;'><p style='color: #ffffff'>jhjhj</p><br><br><p style='color: #ffffff'>jhjhj</p><img style='position:absolute;top: 50%;right: 50%;transform: translate(50%,-50%);z-score:-1;width: 450px;height: 450px;' src='../static/sis_landscape_images/background_238.jpg' height='250'><img style='position:absolute;top: 50%;right: 50%;transform: translate(50%,-50%);z-score:0;width: 250px;height: 250px;' src='../static/images/beverage_107.jpg' height='250'><style>body {background-color: #ffffff;}</style>,null,,,,,,,,,,,
588.5,,prac_learn,291083,,,<p style='color: #ffffff'>jhjhj</p><p style='color: #ffffff'>jhjhj<style>body {background-color: #ffffff;}</style><h1>Is the value of this scene higher than the last one?</h1><br><br><h1>Press '1' for lower,'2' for higher</h1>,50,,,,,,,,,,,,,
null,,you_chose_higher,293086,,,<p style='color: #ffffff'>jhjhj</p><p style='color: #ffffff'>jhjhj<style>body {background-color: #ffffff;}</style><h1>You chose higher</h1>,null,,,,,,,,,,,,,,
null,,prac_learn_scene,294088,,,<p style='color: #ffffff'>jhjhj</p><br><br><p style='color: #ffffff'>jhjhj</p><img style='position:absolute;top: 50%;right: 50%;transform: translate(50%,-50%);z-score:-1;width: 450px;height: 450px;' src='../static/sis_landscape_images/background_201.jpg' height='250'><img style='position:absolute;top: 50%;right: 50%;transform: translate(50%,-50%);z-score:0;width: 250px;height: 250px;' src='../static/images/beverage_330.jpg' height='250'><style>body {background-color: #ffffff;}</style>,null,,,,,,,,,,,,
null,,prac_learn_sceneVal,296091,,,<img src='../static/images/64.png' style='position:absolute;top: 15%;right: 50%;transform: translate(50%,-50%);width: 300px;height: 140px;'><p style='color: #ffffff'>jhjhj</p><br><br><p style='color: #ffffff'>jhjhj</p><img style='position:absolute;top: 50%;right: 50%;transform: translate(50%,-50%);z-score:-1;width: 450px;height: 450px;' src='../static/sis_landscape_images/background_201.jpg' height='250'><img style='position:absolute;top: 50%;right: 50%;transform: translate(50%,-50%);z-score:0;width: 250px;height: 250px;' src='../static/images/beverage_330.jpg' height='250'><style>body {background-color: #ffffff;}</style>,null,,,,,,,,,,,
556.5,,prac_learn,299095,,,<p style='color: #ffffff'>jhjhj</p><p style='color: #ffffff'>jhjhj<style>body {background-color: #ffffff;}</style><h1>Is the value of this scene higher than the last one?</h1><br><br><h1>Press '1' for lower,'2' for higher</h1>,50,,,,,,,,,,,,,
null,,you_chose_higher,301104,,,<p style='color: #ffffff'>jhjhj</p><p style='color: #ffffff'>jhjhj<style>body {background-color: #ffffff;}</style><h1>You chose higher</h1>,null,,,,,,,,,,,,,,
null,,prac_learn_scene,302107,,,<p style='color: #ffffff'>jhjhj</p><br><br><p style='color: #ffffff'>jhjhj</p><img style='position:absolute;top: 50%;right: 50%;transform: translate(50%,-50%);z-score:-1;width: 450px;height: 450px;' src='../static/sis_landscape_images/background_184.jpg' height='250'><img style='position:absolute;top: 50%;right: 50%;transform: translate(50%,-50%);z-score:0;width: 250px;height: 250px;' src='../static/images/beverage_300.jpg' height='250'><style>body {background-color: #ffffff;}</style>,null,,,,,,,,,,,,
null,,prac_learn_sceneVal,304108,,,<img src='../static/images/56.png' style='position:absolute;top: 15%;right: 50%;transform: translate(50%,-50%);width: 300px;height: 140px;'><p style='color: #ffffff'>jhjhj</p><br><br><p style='color: #ffffff'>jhjhj</p><img style='position:absolute;top: 50%;right: 50%;transform: translate(50%,-50%);z-score:-1;width: 450px;height: 450px;' src='../static/sis_landscape_images/background_184.jpg' height='250'><img style='position:absolute;top: 50%;right: 50%;transform: translate(50%,-50%);z-score:0;width: 250px;height: 250px;' src='../static/images/beverage_300.jpg' height='250'><style>body {background-color: #ffffff;}</style>,null,,,,,,,,,,,
369.8999996185300,,prac_learn,307111,,,<p style='color: #ffffff'>jhjhj</p><p style='color: #ffffff'>jhjhj<style>body {background-color: #ffffff;}</style><h1>Is the value of this scene higher than the last one?</h1><br><br><h1>Press '1' for lower,'2' for higher</h1>,49,,,,,,,,,,,,,
null,,you_chose_lower,309114,,,<p style='color: #ffffff'>jhjhj</p><p style='color: #ffffff'>jhjhj<style>body {background-color: #ffffff;}</style><h1>You chose lower</h1>,null,,,,,,,,,,,,,,
null,,prac_learn_scene,310116,,,<p style='color: #ffffff'>jhjhj</p><br><br><p style='color: #ffffff'>jhjhj</p><img style='position:absolute;top: 50%;right: 50%;transform: translate(50%,-50%);z-score:-1;width: 450px;height: 450px;' src='../static/sis_landscape_images/background_316.jpg' height='250'><img style='position:absolute;top: 50%;right: 50%;transform: translate(50%,-50%);z-score:0;width: 250px;height: 250px;' src='../static/images/beverage_213.jpg' height='250'><style>body {background-color: #ffffff;}</style>,null,,,,,,,,,,,,
null,,prac_learn_sceneVal,312119,,,<img src='../static/images/62.png' style='position:absolute;top: 15%;right: 50%;transform: translate(50%,-50%);width: 300px;height: 140px;'><p style='color: #ffffff'>jhjhj</p><br><br><p style='color: #ffffff'>jhjhj</p><img style='position:absolute;top: 50%;right: 50%;transform: translate(50%,-50%);z-score:-1;width: 450px;height: 450px;' src='../static/sis_landscape_images/background_316.jpg' height='250'><img style='position:absolute;top: 50%;right: 50%;transform: translate(50%,-50%);z-score:0;width: 250px;height: 250px;' src='../static/images/beverage_213.jpg' height='250'><style>body {background-color: #ffffff;}</style>,null,,,,,,,,,,,
342.20000076293900,,prac_learn,315121,,,<p style='color: #ffffff'>jhjhj</p><p style='color: #ffffff'>jhjhj<style>body {background-color: #ffffff;}</style><h1>Is the value of this scene higher than the last one?</h1><br><br><h1>Press '1' for lower,'2' for higher</h1>,50,,,,,,,,,,,,,
null,,you_chose_higher,317124,,,<p style='color: #ffffff'>jhjhj</p><p style='color: #ffffff'>jhjhj<style>body {background-color: #ffffff;}</style><h1>You chose higher</h1>,null,,,,,,,,,,,,,,
10123.900001525900,,intro_choice,327249,,,<div style='margin-left:300px ;margin-right: 300px;text-justify: auto'><p>Great! You will now complete a shorter version of the choice task (2 choices) where your goal is to choose the higher value photograph of two photographs presented to you.</p><p>You have a maximum of 5 seconds to make your choice. You will not see the value of your choice, this will be tallied at the end of the experiment and included in your payment.</p><p>[press the spacebar to begin]</p></div>,32,,,,,,,,,,,,,
1913.900001525880,,prac_choice,329164,,,<img style='position:absolute;top: 50%;right: 75%;transform: translate(50%,-50%);z-score:-1;width: 450px;height: 450px;' src='../static/sis_landscape_images/background_349.jpg' height='250'>            <img style='position:absolute;top: 50%;right: 75%;transform: translate(50%,-50%);z-score:0;width: 250px;height: 250px;' src='../static/images/beverage_197.jpg' height='250'>       <img style='position:absolute;top: 50%;right: 25%;transform: translate(50%,-50%);z-score:-1;width: 450px;height: 450px;' src='../static/sis_landscape_images/background_316.jpg' height='250'>            <img style='position:absolute;top: 50%;right: 25%;transform: translate(50%,-50%);z-score:0;width: 250px;height: 250px;' src='../static/images/beverage_213.jpg' height='250'><br><h1 style='position:absolute;top: 20%;right: 50%;transform: translate(50%,-50%);width: 300px;height: 140px;'>Press 1 or 2 to choose</h1><style>body {background-color: #ffffff;}</style>,49,,,,,,,,,
1830.8000011444100,,prac_choice,330997,,,<img style='position:absolute;top: 50%;right: 75%;transform: translate(50%,-50%);z-score:-1;width: 450px;height: 450px;' src='../static/sis_landscape_images/background_223.jpg' height='250'>            <img style='position:absolute;top: 50%;right: 75%;transform: translate(50%,-50%);z-score:0;width: 250px;height: 250px;' src='../static/images/beverage_171.jpg' height='250'>       <img style='position:absolute;top: 50%;right: 25%;transform: translate(50%,-50%);z-score:-1;width: 450px;height: 450px;' src='../static/sis_landscape_images/background_350.jpg' height='250'>            <img style='position:absolute;top: 50%;right: 25%;transform: translate(50%,-50%);z-score:0;width: 250px;height: 250px;' src='../static/images/beverage_217.jpg' height='250'><br><h1 style='position:absolute;top: 20%;right: 50%;transform: translate(50%,-50%);width: 300px;height: 140px;'>Press 1 or 2 to choose</h1><style>body {background-color: #ffffff;}</style>,50,,,,,,,,,
13655.89999961850,,intro_memory,344654,,,<div style='margin-left:300px ;margin-right: 300px'><p>Good job! Now during this shorter practice memory phase, you will be asked to judge whether you remember each photograph by indicating whether it is OLD or NEW.</p><p>Press 'o' to indicate an old photograph,and 'n' to indicate a new one. You will have a maximum of 3 seconds to respond. <b>Please respond as quickly and accurately as possible.</b>  Although we don't expect perfect memory,poor memory performance will decrease your earnings!</p><p><b>Note that the image will stay on the screen for the full 3 seconds, but your response will be registered as soon as you indicate your answer.</b></p><p>[press the spacebar to begin]</p></div>,32,,,,,,,,,,
1799.6000003814700,,prac_memory,347657,,,<p style='color: #ffffff'>jhjhj</p><br><br><p style='color: #ffffff'>jhjhj</p><img style='position:absolute;top: 50%;right: 50%;transform: translate(50%,-50%);z-score:-1;width: 450px;height: 450px;' src='../static/sis_landscape_images/background_244.jpg' height='250'><img style='position:absolute;top: 50%;right: 50%;transform: translate(50%,-50%);z-score:0;width: 250px;height: 250px;' src='../static/images/beverage_36.jpg' height='250'><br><br><h2 style='position:absolute;top: 15%;left:37%;translate(-50%,-50%);width: 400px;height: 400px;'>Press 'N' if new,'O' if old</h2><style>body {background-color: #ffffff;}</style>,79,,,,,,,,,,
null,,you_chose_old,349659,,,<p style='color: #ffffff'>jhjhj</p><p style='color: #ffffff'>jhjhj<style>body {background-color: #ffffff;}</style><h1>You chose Old</h1>,null,,,,,,,,,,,,,,
1754.3999996185300,,prac_memory,352661,,,<p style='color: #ffffff'>jhjhj</p><br><br><p style='color: #ffffff'>jhjhj</p><img style='position:absolute;top: 50%;right: 50%;transform: translate(50%,-50%);z-score:-1;width: 450px;height: 450px;' src='../static/sis_landscape_images/background_247.jpg' height='250'><img style='position:absolute;top: 50%;right: 50%;transform: translate(50%,-50%);z-score:0;width: 250px;height: 250px;' src='../static/images/beverage_3.jpg' height='250'><br><br><h2 style='position:absolute;top: 15%;left:37%;translate(-50%,-50%);width: 400px;height: 400px;'>Press 'N' if new,'O' if old</h2><style>body {background-color: #ffffff;}</style>,78,,,,,,,,,,
null,,you_chose_new,354664,,,<p style='color: #ffffff'>jhjhj</p><p style='color: #ffffff'>jhjhj<style>body {background-color: #ffffff;}</style><h1>You chose New</h1>,null,,,,,,,,,,,,,,
1031.2999992370600,,prac_memory,357666,,,<p style='color: #ffffff'>jhjhj</p><br><br><p style='color: #ffffff'>jhjhj</p><img style='position:absolute;top: 50%;right: 50%;transform: translate(50%,-50%);z-score:-1;width: 450px;height: 450px;' src='../static/sis_landscape_images/background_184.jpg' height='250'><img style='position:absolute;top: 50%;right: 50%;transform: translate(50%,-50%);z-score:0;width: 250px;height: 250px;' src='../static/images/beverage_300.jpg' height='250'><br><br><h2 style='position:absolute;top: 15%;left:37%;translate(-50%,-50%);width: 400px;height: 400px;'>Press 'N' if new,'O' if old</h2><style>body {background-color: #ffffff;}</style>,79,,,,,,,,,,
null,,you_chose_old,359668,,,<p style='color: #ffffff'>jhjhj</p><p style='color: #ffffff'>jhjhj<style>body {background-color: #ffffff;}</style><h1>You chose Old</h1>,null,,,,,,,,,,,,,,
1322.8000011444100,,prac_memory,362676,,,<p style='color: #ffffff'>jhjhj</p><br><br><p style='color: #ffffff'>jhjhj</p><img style='position:absolute;top: 50%;right: 50%;transform: translate(50%,-50%);z-score:-1;width: 450px;height: 450px;' src='../static/sis_landscape_images/background_178.jpg' height='250'><img style='position:absolute;top: 50%;right: 50%;transform: translate(50%,-50%);z-score:0;width: 250px;height: 250px;' src='../static/images/beverage_191.jpg' height='250'><br><br><h2 style='position:absolute;top: 15%;left:37%;translate(-50%,-50%);width: 400px;height: 400px;'>Press 'N' if new,'O' if old</h2><style>body {background-color: #ffffff;}</style>,78,,,,,,,,,,
null,,you_chose_new,364679,,,<p style='color: #ffffff'>jhjhj</p><p style='color: #ffffff'>jhjhj<style>body {background-color: #ffffff;}</style><h1>You chose New</h1>,null,,,,,,,,,,,,,,
1614.1000003814700,,prac_memory,367681,,,<p style='color: #ffffff'>jhjhj</p><br><br><p style='color: #ffffff'>jhjhj</p><img style='position:absolute;top: 50%;right: 50%;transform: translate(50%,-50%);z-score:-1;width: 450px;height: 450px;' src='../static/sis_landscape_images/background_335.jpg' height='250'><img style='position:absolute;top: 50%;right: 50%;transform: translate(50%,-50%);z-score:0;width: 250px;height: 250px;' src='../static/images/beverage_147.jpg' height='250'><br><br><h2 style='position:absolute;top: 15%;left:37%;translate(-50%,-50%);width: 400px;height: 400px;'>Press 'N' if new,'O' if old</h2><style>body {background-color: #ffffff;}</style>,78,,,,,,,,,,
null,,you_chose_new,369683,,,<p style='color: #ffffff'>jhjhj</p><p style='color: #ffffff'>jhjhj<style>body {background-color: #ffffff;}</style><h1>You chose New</h1>,null,,,,,,,,,,,,,,
1409.1000003814700,,prac_memory,372685,,,<p style='color: #ffffff'>jhjhj</p><br><br><p style='color: #ffffff'>jhjhj</p><img style='position:absolute;top: 50%;right: 50%;transform: translate(50%,-50%);z-score:-1;width: 450px;height: 450px;' src='../static/sis_landscape_images/background_253.jpg' height='250'><img style='position:absolute;top: 50%;right: 50%;transform: translate(50%,-50%);z-score:0;width: 250px;height: 250px;' src='../static/images/beverage_55.jpg' height='250'><br><br><h2 style='position:absolute;top: 15%;left:37%;translate(-50%,-50%);width: 400px;height: 400px;'>Press 'N' if new,'O' if old</h2><style>body {background-color: #ffffff;}</style>,78,,,,,,,,,,
null,,you_chose_new,374687,,,<p style='color: #ffffff'>jhjhj</p><p style='color: #ffffff'>jhjhj<style>body {background-color: #ffffff;}</style><h1>You chose New</h1>,null,,,,,,,,,,,,,,
733.2999992370610,,prac_memory,377690,,,<p style='color: #ffffff'>jhjhj</p><br><br><p style='color: #ffffff'>jhjhj</p><img style='position:absolute;top: 50%;right: 50%;transform: translate(50%,-50%);z-score:-1;width: 450px;height: 450px;' src='../static/sis_landscape_images/background_238.jpg' height='250'><img style='position:absolute;top: 50%;right: 50%;transform: translate(50%,-50%);z-score:0;width: 250px;height: 250px;' src='../static/images/beverage_107.jpg' height='250'><br><br><h2 style='position:absolute;top: 15%;left:37%;translate(-50%,-50%);width: 400px;height: 400px;'>Press 'N' if new,'O' if old</h2><style>body {background-color: #ffffff;}</style>,79,,,,,,,,,,
null,,you_chose_old,379691,,,<p style='color: #ffffff'>jhjhj</p><p style='color: #ffffff'>jhjhj<style>body {background-color: #ffffff;}</style><h1>You chose Old</h1>,null,,,,,,,,,,,,,,
1003.1999988555900,,prac_memory,382694,,,<p style='color: #ffffff'>jhjhj</p><br><br><p style='color: #ffffff'>jhjhj</p><img style='position:absolute;top: 50%;right: 50%;transform: translate(50%,-50%);z-score:-1;width: 450px;height: 450px;' src='../static/sis_landscape_images/background_201.jpg' height='250'><img style='position:absolute;top: 50%;right: 50%;transform: translate(50%,-50%);z-score:0;width: 250px;height: 250px;' src='../static/images/beverage_330.jpg' height='250'><br><br><h2 style='position:absolute;top: 15%;left:37%;translate(-50%,-50%);width: 400px;height: 400px;'>Press 'N' if new,'O' if old</h2><style>body {background-color: #ffffff;}</style>,79,,,,,,,,,,
null,,you_chose_old,384696,,,<p style='color: #ffffff'>jhjhj</p><p style='color: #ffffff'>jhjhj<style>body {background-color: #ffffff;}</style><h1>You chose Old</h1>,null,,,,,,,,,,,,,,
1172.2999992370600,,prac_memory,387698,,,<p style='color: #ffffff'>jhjhj</p><br><br><p style='color: #ffffff'>jhjhj</p><img style='position:absolute;top: 50%;right: 50%;transform: translate(50%,-50%);z-score:-1;width: 450px;height: 450px;' src='../static/sis_landscape_images/background_246.jpg' height='250'><img style='position:absolute;top: 50%;right: 50%;transform: translate(50%,-50%);z-score:0;width: 250px;height: 250px;' src='../static/images/beverage_256.jpg' height='250'><br><br><h2 style='position:absolute;top: 15%;left:37%;translate(-50%,-50%);width: 400px;height: 400px;'>Press 'N' if new,'O' if old</h2><style>body {background-color: #ffffff;}</style>,78,,,,,,,,,,
null,,you_chose_new,389701,,,<p style='color: #ffffff'>jhjhj</p><p style='color: #ffffff'>jhjhj<style>body {background-color: #ffffff;}</style><h1>You chose New</h1>,null,,,,,,,,,,,,,,
1675.5,,prac_memory,392703,,,<p style='color: #ffffff'>jhjhj</p><br><br><p style='color: #ffffff'>jhjhj</p><img style='position:absolute;top: 50%;right: 50%;transform: translate(50%,-50%);z-score:-1;width: 450px;height: 450px;' src='../static/sis_landscape_images/background_236.jpg' height='250'><img style='position:absolute;top: 50%;right: 50%;transform: translate(50%,-50%);z-score:0;width: 250px;height: 250px;' src='../static/images/beverage_51.jpg' height='250'><br><br><h2 style='position:absolute;top: 15%;left:37%;translate(-50%,-50%);width: 400px;height: 400px;'>Press 'N' if new,'O' if old</h2><style>body {background-color: #ffffff;}</style>,79,,,,,,,,,,
null,,you_chose_old,394705,,,<p style='color: #ffffff'>jhjhj</p><p style='color: #ffffff'>jhjhj<style>body {background-color: #ffffff;}</style><h1>You chose Old</h1>,null,,,,,,,,,,,,,,
21414.60000038150,,blue_instruct,416121,,,<p>Welcome to the blue room!</p><p>As before, you will view each photograph you pick up within the room. The photograph will appear on the screen,and after 1 second you will also see its resale value for 2 seconds.</p><p>You will receive a 10% commission on each photograph you pick up. Their values depend on the collection the photos belong to, some collections more or less valuable than others. You may go through several collections in one room (although you will go through each collection one at a time).</p><p>Remember both the photographs and their values. You will get the chance to choose between two photographs, and if you make the right choice (the higher value photo),you'll get double your commission for that photograph. You will also be asked to remember the photographs in a memory test.</p><p>[press the spacebar to begin]</p><style>body {background-color: #42a7f5;}</style>,32,,,,,,,,,
null,,blue_learn_scene,417125,,,<p style='color: #42a7f5'>jhjhj</p><br><br><p style='color: #42a7f5'>jhjhj</p><img style='position:absolute;top: 50%;right: 50%;transform: translate(50%,-50%);z-score:-1;width: 450px;height: 450px;' src='../static/sis_landscape_images/background_230.jpg' height='250'><img style='position:absolute;top: 50%;right: 50%;transform: translate(50%,-50%);z-score:0;width: 250px;height: 250px;' src='../static/images/beverage_30.jpg' height='250'><style>body {background-color: #42a7f5;}</style>,null,,,,,,,,,,,,
null,,blue_learn_sceneVal,419128,,,<img src='../static/images/63.png' style='position:absolute;top: 15%;right: 50%;transform: translate(50%,-50%);width: 300px;height: 140px;'><p style='color: #42a7f5'>jhjhj</p><br><br><p style='color: #42a7f5'>jhjhj</p><img style='position:absolute;top: 50%;right: 50%;transform: translate(50%,-50%);z-score:-1;width: 450px;height: 450px;' src='../static/sis_landscape_images/background_230.jpg' height='250'><img style='position:absolute;top: 50%;right: 50%;transform: translate(50%,-50%);z-score:0;width: 250px;height: 250px;' src='../static/images/beverage_30.jpg' height='250'><style>body {background-color: #42a7f5;}</style>,null,,,,,,,,,,,
null,,blue_learn_scene,420134,,,<p style='color: #42a7f5'>jhjhj</p><br><br><p style='color: #42a7f5'>jhjhj</p><img style='position:absolute;top: 50%;right: 50%;transform: translate(50%,-50%);z-score:-1;width: 450px;height: 450px;' src='../static/sis_landscape_images/background_160.jpg' height='250'><img style='position:absolute;top: 50%;right: 50%;transform: translate(50%,-50%);z-score:0;width: 250px;height: 250px;' src='../static/images/beverage_286.jpg' height='250'><style>body {background-color: #42a7f5;}</style>,null,,,,,,,,,,,,
null,,blue_learn_sceneVal,422136,,,<img src='../static/images/45.png' style='position:absolute;top: 15%;right: 50%;transform: translate(50%,-50%);width: 300px;height: 140px;'><p style='color: #42a7f5'>jhjhj</p><br><br><p style='color: #42a7f5'>jhjhj</p><img style='position:absolute;top: 50%;right: 50%;transform: translate(50%,-50%);z-score:-1;width: 450px;height: 450px;' src='../static/sis_landscape_images/background_160.jpg' height='250'><img style='position:absolute;top: 50%;right: 50%;transform: translate(50%,-50%);z-score:0;width: 250px;height: 250px;' src='../static/images/beverage_286.jpg' height='250'><style>body {background-color: #42a7f5;}</style>,null,,,,,,,,,,,
632.2000007629400,,blue_learn_choice,425138,,,<p style='color: #42a7f5'>jhjhj</p><p style='color: #42a7f5'>jhjhj<style>body {background-color: #42a7f5;}</style><h1>Is the value of this scene higher than the last one?</h1><br><br><h1>Press '1' for lower,'2' for higher</h1>,50,,,,,,,,,,,,,
null,,you_chose_higher,427142,,,<p style='color: #42a7f5'>jhjhj</p><p style='color: #42a7f5'>jhjhj<style>body {background-color: #42a7f5;}</style><h1>You chose higher</h1>,null,,,,,,,,,,,,,,
null,,blue_learn_scene,428144,,,<p style='color: #42a7f5'>jhjhj</p><br><br><p style='color: #42a7f5'>jhjhj</p><img style='position:absolute;top: 50%;right: 50%;transform: translate(50%,-50%);z-score:-1;width: 450px;height: 450px;' src='../static/sis_landscape_images/background_6.jpg' height='250'><img style='position:absolute;top: 50%;right: 50%;transform: translate(50%,-50%);z-score:0;width: 250px;height: 250px;' src='../static/images/beverage_223.jpg' height='250'><style>body {background-color: #42a7f5;}</style>,null,,,,,,,,,,,,
null,,blue_learn_sceneVal,430146,,,<img src='../static/images/54.png' style='position:absolute;top: 15%;right: 50%;transform: translate(50%,-50%);width: 300px;height: 140px;'><p style='color: #42a7f5'>jhjhj</p><br><br><p style='color: #42a7f5'>jhjhj</p><img style='position:absolute;top: 50%;right: 50%;transform: translate(50%,-50%);z-score:-1;width: 450px;height: 450px;' src='../static/sis_landscape_images/background_6.jpg' height='250'><img style='position:absolute;top: 50%;right: 50%;transform: translate(50%,-50%);z-score:0;width: 250px;height: 250px;' src='../static/images/beverage_223.jpg' height='250'><style>body {background-color: #42a7f5;}</style>,null,,,,,,,,,,,
310.20000076293900,,blue_learn_choice,433148,,,<p style='color: #42a7f5'>jhjhj</p><p style='color: #42a7f5'>jhjhj<style>body {background-color: #42a7f5;}</style><h1>Is the value of this scene higher than the last one?</h1><br><br><h1>Press '1' for lower,'2' for higher</h1>,50,,,,,,,,,,,,,
null,,you_chose_higher,435152,,,<p style='color: #42a7f5'>jhjhj</p><p style='color: #42a7f5'>jhjhj<style>body {background-color: #42a7f5;}</style><h1>You chose higher</h1>,null,,,,,,,,,,,,,,
null,,blue_learn_scene,436154,,,<p style='color: #42a7f5'>jhjhj</p><br><br><p style='color: #42a7f5'>jhjhj</p><img style='position:absolute;top: 50%;right: 50%;transform: translate(50%,-50%);z-score:-1;width: 450px;height: 450px;' src='../static/sis_landscape_images/background_148.jpg' height='250'><img style='position:absolute;top: 50%;right: 50%;transform: translate(50%,-50%);z-score:0;width: 250px;height: 250px;' src='../static/images/beverage_67.jpg' height='250'><style>body {background-color: #42a7f5;}</style>,null,,,,,,,,,,,,
null,,blue_learn_sceneVal,438156,,,<img src='../static/images/65.png' style='position:absolute;top: 15%;right: 50%;transform: translate(50%,-50%);width: 300px;height: 140px;'><p style='color: #42a7f5'>jhjhj</p><br><br><p style='color: #42a7f5'>jhjhj</p><img style='position:absolute;top: 50%;right: 50%;transform: translate(50%,-50%);z-score:-1;width: 450px;height: 450px;' src='../static/sis_landscape_images/background_148.jpg' height='250'><img style='position:absolute;top: 50%;right: 50%;transform: translate(50%,-50%);z-score:0;width: 250px;height: 250px;' src='../static/images/beverage_67.jpg' height='250'><style>body {background-color: #42a7f5;}</style>,null,,,,,,,,,,,
270.5,,blue_learn_choice,441159,,,<p style='color: #42a7f5'>jhjhj</p><p style='color: #42a7f5'>jhjhj<style>body {background-color: #42a7f5;}</style><h1>Is the value of this scene higher than the last one?</h1><br><br><h1>Press '1' for lower,'2' for higher</h1>,50,,,,,,,,,,,,,
null,,you_chose_higher,443161,,,<p style='color: #42a7f5'>jhjhj</p><p style='color: #42a7f5'>jhjhj<style>body {background-color: #42a7f5;}</style><h1>You chose higher</h1>,null,,,,,,,,,,,,,,
null,,blue_learn_scene,444162,,,<p style='color: #42a7f5'>jhjhj</p><br><br><p style='color: #42a7f5'>jhjhj</p><img style='position:absolute;top: 50%;right: 50%;transform: translate(50%,-50%);z-score:-1;width: 450px;height: 450px;' src='../static/sis_landscape_images/background_173.jpg' height='250'><img style='position:absolute;top: 50%;right: 50%;transform: translate(50%,-50%);z-score:0;width: 250px;height: 250px;' src='../static/images/beverage_272.jpg' height='250'><style>body {background-color: #42a7f5;}</style>,null,,,,,,,,,,,,
null,,blue_learn_sceneVal,446164,,,<img src='../static/images/57.png' style='position:absolute;top: 15%;right: 50%;transform: translate(50%,-50%);width: 300px;height: 140px;'><p style='color: #42a7f5'>jhjhj</p><br><br><p style='color: #42a7f5'>jhjhj</p><img style='position:absolute;top: 50%;right: 50%;transform: translate(50%,-50%);z-score:-1;width: 450px;height: 450px;' src='../static/sis_landscape_images/background_173.jpg' height='250'><img style='position:absolute;top: 50%;right: 50%;transform: translate(50%,-50%);z-score:0;width: 250px;height: 250px;' src='../static/images/beverage_272.jpg' height='250'><style>body {background-color: #42a7f5;}</style>,null,,,,,,,,,,,
290,,blue_learn_choice,449167,,,<p style='color: #42a7f5'>jhjhj</p><p style='color: #42a7f5'>jhjhj<style>body {background-color: #42a7f5;}</style><h1>Is the value of this scene higher than the last one?</h1><br><br><h1>Press '1' for lower,'2' for higher</h1>,49,,,,,,,,,,,,,
null,,you_chose_lower,451169,,,<p style='color: #42a7f5'>jhjhj</p><p style='color: #42a7f5'>jhjhj<style>body {background-color: #42a7f5;}</style><h1>You chose lower</h1>,null,,,,,,,,,,,,,,
null,,blue_learn_scene,452172,,,<p style='color: #42a7f5'>jhjhj</p><br><br><p style='color: #42a7f5'>jhjhj</p><img style='position:absolute;top: 50%;right: 50%;transform: translate(50%,-50%);z-score:-1;width: 450px;height: 450px;' src='../static/sis_landscape_images/background_166.jpg' height='250'><img style='position:absolute;top: 50%;right: 50%;transform: translate(50%,-50%);z-score:0;width: 250px;height: 250px;' src='../static/images/beverage_258.jpg' height='250'><style>body {background-color: #42a7f5;}</style>,null,,,,,,,,,,,,
null,,blue_learn_sceneVal,454174,,,<img src='../static/images/66.png' style='position:absolute;top: 15%;right: 50%;transform: translate(50%,-50%);width: 300px;height: 140px;'><p style='color: #42a7f5'>jhjhj</p><br><br><p style='color: #42a7f5'>jhjhj</p><img style='position:absolute;top: 50%;right: 50%;transform: translate(50%,-50%);z-score:-1;width: 450px;height: 450px;' src='../static/sis_landscape_images/background_166.jpg' height='250'><img style='position:absolute;top: 50%;right: 50%;transform: translate(50%,-50%);z-score:0;width: 250px;height: 250px;' src='../static/images/beverage_258.jpg' height='250'><style>body {background-color: #42a7f5;}</style>,null,,,,,,,,,,,
766.7999992370610,,blue_learn_choice,457177,,,<p style='color: #42a7f5'>jhjhj</p><p style='color: #42a7f5'>jhjhj<style>body {background-color: #42a7f5;}</style><h1>Is the value of this scene higher than the last one?</h1><br><br><h1>Press '1' for lower,'2' for higher</h1>,50,,,,,,,,,,,,,
null,,you_chose_higher,459180,,,<p style='color: #42a7f5'>jhjhj</p><p style='color: #42a7f5'>jhjhj<style>body {background-color: #42a7f5;}</style><h1>You chose higher</h1>,null,,,,,,,,,,,,,,
null,,blue_learn_scene,460182,,,<p style='color: #42a7f5'>jhjhj</p><br><br><p style='color: #42a7f5'>jhjhj</p><img style='position:absolute;top: 50%;right: 50%;transform: translate(50%,-50%);z-score:-1;width: 450px;height: 450px;' src='../static/sis_landscape_images/background_145.jpg' height='250'><img style='position:absolute;top: 50%;right: 50%;transform: translate(50%,-50%);z-score:0;width: 250px;height: 250px;' src='../static/images/beverage_340.jpg' height='250'><style>body {background-color: #42a7f5;}</style>,null,,,,,,,,,,,,
null,,blue_learn_sceneVal,462185,,,<img src='../static/images/69.png' style='position:absolute;top: 15%;right: 50%;transform: translate(50%,-50%);width: 300px;height: 140px;'><p style='color: #42a7f5'>jhjhj</p><br><br><p style='color: #42a7f5'>jhjhj</p><img style='position:absolute;top: 50%;right: 50%;transform: translate(50%,-50%);z-score:-1;width: 450px;height: 450px;' src='../static/sis_landscape_images/background_145.jpg' height='250'><img style='position:absolute;top: 50%;right: 50%;transform: translate(50%,-50%);z-score:0;width: 250px;height: 250px;' src='../static/images/beverage_340.jpg' height='250'><style>body {background-color: #42a7f5;}</style>,null,,,,,,,,,,,
468.3000011444090,,blue_learn_choice,465187,,,<p style='color: #42a7f5'>jhjhj</p><p style='color: #42a7f5'>jhjhj<style>body {background-color: #42a7f5;}</style><h1>Is the value of this scene higher than the last one?</h1><br><br><h1>Press '1' for lower,'2' for higher</h1>,50,,,,,,,,,,,,,
null,,you_chose_higher,467190,,,<p style='color: #42a7f5'>jhjhj</p><p style='color: #42a7f5'>jhjhj<style>body {background-color: #42a7f5;}</style><h1>You chose higher</h1>,null,,,,,,,,,,,,,,
null,,blue_learn_scene,468192,,,<p style='color: #42a7f5'>jhjhj</p><br><br><p style='color: #42a7f5'>jhjhj</p><img style='position:absolute;top: 50%;right: 50%;transform: translate(50%,-50%);z-score:-1;width: 450px;height: 450px;' src='../static/sis_landscape_images/background_49.jpg' height='250'><img style='position:absolute;top: 50%;right: 50%;transform: translate(50%,-50%);z-score:0;width: 250px;height: 250px;' src='../static/images/beverage_43.jpg' height='250'><style>body {background-color: #42a7f5;}</style>,null,,,,,,,,,,,,
null,,blue_learn_sceneVal,470195,,,<img src='../static/images/62.png' style='position:absolute;top: 15%;right: 50%;transform: translate(50%,-50%);width: 300px;height: 140px;'><p style='color: #42a7f5'>jhjhj</p><br><br><p style='color: #42a7f5'>jhjhj</p><img style='position:absolute;top: 50%;right: 50%;transform: translate(50%,-50%);z-score:-1;width: 450px;height: 450px;' src='../static/sis_landscape_images/background_49.jpg' height='250'><img style='position:absolute;top: 50%;right: 50%;transform: translate(50%,-50%);z-score:0;width: 250px;height: 250px;' src='../static/images/beverage_43.jpg' height='250'><style>body {background-color: #42a7f5;}</style>,null,,,,,,,,,,,
351.79999923706100,,blue_learn_choice,473197,,,<p style='color: #42a7f5'>jhjhj</p><p style='color: #42a7f5'>jhjhj<style>body {background-color: #42a7f5;}</style><h1>Is the value of this scene higher than the last one?</h1><br><br><h1>Press '1' for lower,'2' for higher</h1>,49,,,,,,,,,,,,,
null,,you_chose_lower,475200,,,<p style='color: #42a7f5'>jhjhj</p><p style='color: #42a7f5'>jhjhj<style>body {background-color: #42a7f5;}</style><h1>You chose lower</h1>,null,,,,,,,,,,,,,,
null,,blue_learn_scene,476202,,,<p style='color: #42a7f5'>jhjhj</p><br><br><p style='color: #42a7f5'>jhjhj</p><img style='position:absolute;top: 50%;right: 50%;transform: translate(50%,-50%);z-score:-1;width: 450px;height: 450px;' src='../static/sis_landscape_images/background_80.jpg' height='250'><img style='position:absolute;top: 50%;right: 50%;transform: translate(50%,-50%);z-score:0;width: 250px;height: 250px;' src='../static/images/1_tequila_glass_16.jpg' height='250'><style>body {background-color: #42a7f5;}</style>,null,,,,,,,,,,,,
null,,blue_learn_sceneVal,478206,,,<img src='../static/images/82.png' style='position:absolute;top: 15%;right: 50%;transform: translate(50%,-50%);width: 300px;height: 140px;'><p style='color: #42a7f5'>jhjhj</p><br><br><p style='color: #42a7f5'>jhjhj</p><img style='position:absolute;top: 50%;right: 50%;transform: translate(50%,-50%);z-score:-1;width: 450px;height: 450px;' src='../static/sis_landscape_images/background_80.jpg' height='250'><img style='position:absolute;top: 50%;right: 50%;transform: translate(50%,-50%);z-score:0;width: 250px;height: 250px;' src='../static/images/1_tequila_glass_16.jpg' height='250'><style>body {background-color: #42a7f5;}</style>,null,,,,,,,,,,,
422.1000003814700,,blue_learn_choice,481209,,,<p style='color: #42a7f5'>jhjhj</p><p style='color: #42a7f5'>jhjhj<style>body {background-color: #42a7f5;}</style><h1>Is the value of this scene higher than the last one?</h1><br><br><h1>Press '1' for lower,'2' for higher</h1>,50,,,,,,,,,,,,,
null,,you_chose_higher,483212,,,<p style='color: #42a7f5'>jhjhj</p><p style='color: #42a7f5'>jhjhj<style>body {background-color: #42a7f5;}</style><h1>You chose higher</h1>,null,,,,,,,,,,,,,,
null,,blue_learn_scene,484214,,,<p style='color: #42a7f5'>jhjhj</p><br><br><p style='color: #42a7f5'>jhjhj</p><img style='position:absolute;top: 50%;right: 50%;transform: translate(50%,-50%);z-score:-1;width: 450px;height: 450px;' src='../static/sis_landscape_images/background_7.jpg' height='250'><img style='position:absolute;top: 50%;right: 50%;transform: translate(50%,-50%);z-score:0;width: 250px;height: 250px;' src='../static/images/1_tequila_glass_23.jpg' height='250'><style>body {background-color: #42a7f5;}</style>,null,,,,,,,,,,,,
null,,blue_learn_sceneVal,486216,,,<img src='../static/images/70.png' style='position:absolute;top: 15%;right: 50%;transform: translate(50%,-50%);width: 300px;height: 140px;'><p style='color: #42a7f5'>jhjhj</p><br><br><p style='color: #42a7f5'>jhjhj</p><img style='position:absolute;top: 50%;right: 50%;transform: translate(50%,-50%);z-score:-1;width: 450px;height: 450px;' src='../static/sis_landscape_images/background_7.jpg' height='250'><img style='position:absolute;top: 50%;right: 50%;transform: translate(50%,-50%);z-score:0;width: 250px;height: 250px;' src='../static/images/1_tequila_glass_23.jpg' height='250'><style>body {background-color: #42a7f5;}</style>,null,,,,,,,,,,,
315.1000003814700,,blue_learn_choice,489218,,,<p style='color: #42a7f5'>jhjhj</p><p style='color: #42a7f5'>jhjhj<style>body {background-color: #42a7f5;}</style><h1>Is the value of this scene higher than the last one?</h1><br><br><h1>Press '1' for lower,'2' for higher</h1>,49,,,,,,,,,,,,,
null,,you_chose_lower,491221,,,<p style='color: #42a7f5'>jhjhj</p><p style='color: #42a7f5'>jhjhj<style>body {background-color: #42a7f5;}</style><h1>You chose lower</h1>,null,,,,,,,,,,,,,,
null,,blue_learn_scene,492222,,,<p style='color: #42a7f5'>jhjhj</p><br><br><p style='color: #42a7f5'>jhjhj</p><img style='position:absolute;top: 50%;right: 50%;transform: translate(50%,-50%);z-score:-1;width: 450px;height: 450px;' src='../static/sis_landscape_images/background_18.jpg' height='250'><img style='position:absolute;top: 50%;right: 50%;transform: translate(50%,-50%);z-score:0;width: 250px;height: 250px;' src='../static/images/1_tequila_glass_4.jpg' height='250'><style>body {background-color: #42a7f5;}</style>,null,,,,,,,,,,,,
null,,blue_learn_sceneVal,494224,,,<img src='../static/images/78.png' style='position:absolute;top: 15%;right: 50%;transform: translate(50%,-50%);width: 300px;height: 140px;'><p style='color: #42a7f5'>jhjhj</p><br><br><p style='color: #42a7f5'>jhjhj</p><img style='position:absolute;top: 50%;right: 50%;transform: translate(50%,-50%);z-score:-1;width: 450px;height: 450px;' src='../static/sis_landscape_images/background_18.jpg' height='250'><img style='position:absolute;top: 50%;right: 50%;transform: translate(50%,-50%);z-score:0;width: 250px;height: 250px;' src='../static/images/1_tequila_glass_4.jpg' height='250'><style>body {background-color: #42a7f5;}</style>,null,,,,,,,,,,,
408.20000076293900,,blue_learn_choice,497227,,,<p style='color: #42a7f5'>jhjhj</p><p style='color: #42a7f5'>jhjhj<style>body {background-color: #42a7f5;}</style><h1>Is the value of this scene higher than the last one?</h1><br><br><h1>Press '1' for lower,'2' for higher</h1>,50,,,,,,,,,,,,,
null,,you_chose_higher,499229,,,<p style='color: #42a7f5'>jhjhj</p><p style='color: #42a7f5'>jhjhj<style>body {background-color: #42a7f5;}</style><h1>You chose higher</h1>,null,,,,,,,,,,,,,,
null,,blue_learn_scene,500230,,,<p style='color: #42a7f5'>jhjhj</p><br><br><p style='color: #42a7f5'>jhjhj</p><img style='position:absolute;top: 50%;right: 50%;transform: translate(50%,-50%);z-score:-1;width: 450px;height: 450px;' src='../static/sis_landscape_images/background_53.jpg' height='250'><img style='position:absolute;top: 50%;right: 50%;transform: translate(50%,-50%);z-score:0;width: 250px;height: 250px;' src='../static/images/1_tequila_glass_24.jpg' height='250'><style>body {background-color: #42a7f5;}</style>,null,,,,,,,,,,,,
null,,blue_learn_sceneVal,502232,,,<img src='../static/images/85.png' style='position:absolute;top: 15%;right: 50%;transform: translate(50%,-50%);width: 300px;height: 140px;'><p style='color: #42a7f5'>jhjhj</p><br><br><p style='color: #42a7f5'>jhjhj</p><img style='position:absolute;top: 50%;right: 50%;transform: translate(50%,-50%);z-score:-1;width: 450px;height: 450px;' src='../static/sis_landscape_images/background_53.jpg' height='250'><img style='position:absolute;top: 50%;right: 50%;transform: translate(50%,-50%);z-score:0;width: 250px;height: 250px;' src='../static/images/1_tequila_glass_24.jpg' height='250'><style>body {background-color: #42a7f5;}</style>,null,,,,,,,,,,,
489.5,,blue_learn_choice,505235,,,<p style='color: #42a7f5'>jhjhj</p><p style='color: #42a7f5'>jhjhj<style>body {background-color: #42a7f5;}</style><h1>Is the value of this scene higher than the last one?</h1><br><br><h1>Press '1' for lower,'2' for higher</h1>,50,,,,,,,,,,,,,
null,,you_chose_higher,507237,,,<p style='color: #42a7f5'>jhjhj</p><p style='color: #42a7f5'>jhjhj<style>body {background-color: #42a7f5;}</style><h1>You chose higher</h1>,null,,,,,,,,,,,,,,
null,,blue_learn_scene,508240,,,<p style='color: #42a7f5'>jhjhj</p><br><br><p style='color: #42a7f5'>jhjhj</p><img style='position:absolute;top: 50%;right: 50%;transform: translate(50%,-50%);z-score:-1;width: 450px;height: 450px;' src='../static/sis_landscape_images/background_45.jpg' height='250'><img style='position:absolute;top: 50%;right: 50%;transform: translate(50%,-50%);z-score:0;width: 250px;height: 250px;' src='../static/images/1_tequila_glass_20.jpg' height='250'><style>body {background-color: #42a7f5;}</style>,null,,,,,,,,,,,,
null,,blue_learn_sceneVal,510243,,,<img src='../static/images/77.png' style='position:absolute;top: 15%;right: 50%;transform: translate(50%,-50%);width: 300px;height: 140px;'><p style='color: #42a7f5'>jhjhj</p><br><br><p style='color: #42a7f5'>jhjhj</p><img style='position:absolute;top: 50%;right: 50%;transform: translate(50%,-50%);z-score:-1;width: 450px;height: 450px;' src='../static/sis_landscape_images/background_45.jpg' height='250'><img style='position:absolute;top: 50%;right: 50%;transform: translate(50%,-50%);z-score:0;width: 250px;height: 250px;' src='../static/images/1_tequila_glass_20.jpg' height='250'><style>body {background-color: #42a7f5;}</style>,null,,,,,,,,,,,
263.3999996185300,,blue_learn_choice,513246,,,<p style='color: #42a7f5'>jhjhj</p><p style='color: #42a7f5'>jhjhj<style>body {background-color: #42a7f5;}</style><h1>Is the value of this scene higher than the last one?</h1><br><br><h1>Press '1' for lower,'2' for higher</h1>,49,,,,,,,,,,,,,
null,,you_chose_lower,515248,,,<p style='color: #42a7f5'>jhjhj</p><p style='color: #42a7f5'>jhjhj<style>body {background-color: #42a7f5;}</style><h1>You chose lower</h1>,null,,,,,,,,,,,,,,
null,,blue_learn_scene,516251,,,<p style='color: #42a7f5'>jhjhj</p><br><br><p style='color: #42a7f5'>jhjhj</p><img style='position:absolute;top: 50%;right: 50%;transform: translate(50%,-50%);z-score:-1;width: 450px;height: 450px;' src='../static/sis_landscape_images/background_74.jpg' height='250'><img style='position:absolute;top: 50%;right: 50%;transform: translate(50%,-50%);z-score:0;width: 250px;height: 250px;' src='../static/images/1_tequila_glass_28.jpg' height='250'><style>body {background-color: #42a7f5;}</style>,null,,,,,,,,,,,,
null,,blue_learn_sceneVal,518255,,,<img src='../static/images/84.png' style='position:absolute;top: 15%;right: 50%;transform: translate(50%,-50%);width: 300px;height: 140px;'><p style='color: #42a7f5'>jhjhj</p><br><br><p style='color: #42a7f5'>jhjhj</p><img style='position:absolute;top: 50%;right: 50%;transform: translate(50%,-50%);z-score:-1;width: 450px;height: 450px;' src='../static/sis_landscape_images/background_74.jpg' height='250'><img style='position:absolute;top: 50%;right: 50%;transform: translate(50%,-50%);z-score:0;width: 250px;height: 250px;' src='../static/images/1_tequila_glass_28.jpg' height='250'><style>body {background-color: #42a7f5;}</style>,null,,,,,,,,,,,
319.8000011444090,,blue_learn_choice,521258,,,<p style='color: #42a7f5'>jhjhj</p><p style='color: #42a7f5'>jhjhj<style>body {background-color: #42a7f5;}</style><h1>Is the value of this scene higher than the last one?</h1><br><br><h1>Press '1' for lower,'2' for higher</h1>,50,,,,,,,,,,,,,
null,,you_chose_higher,523260,,,<p style='color: #42a7f5'>jhjhj</p><p style='color: #42a7f5'>jhjhj<style>body {background-color: #42a7f5;}</style><h1>You chose higher</h1>,null,,,,,,,,,,,,,,
null,,blue_learn_scene,524262,,,<p style='color: #42a7f5'>jhjhj</p><br><br><p style='color: #42a7f5'>jhjhj</p><img style='position:absolute;top: 50%;right: 50%;transform: translate(50%,-50%);z-score:-1;width: 450px;height: 450px;' src='../static/sis_landscape_images/background_27.jpg' height='250'><img style='position:absolute;top: 50%;right: 50%;transform: translate(50%,-50%);z-score:0;width: 250px;height: 250px;' src='../static/images/beverage_225.jpg' height='250'><style>body {background-color: #42a7f5;}</style>,null,,,,,,,,,,,,
null,,blue_learn_sceneVal,526265,,,<img src='../static/images/54.png' style='position:absolute;top: 15%;right: 50%;transform: translate(50%,-50%);width: 300px;height: 140px;'><p style='color: #42a7f5'>jhjhj</p><br><br><p style='color: #42a7f5'>jhjhj</p><img style='position:absolute;top: 50%;right: 50%;transform: translate(50%,-50%);z-score:-1;width: 450px;height: 450px;' src='../static/sis_landscape_images/background_27.jpg' height='250'><img style='position:absolute;top: 50%;right: 50%;transform: translate(50%,-50%);z-score:0;width: 250px;height: 250px;' src='../static/images/beverage_225.jpg' height='250'><style>body {background-color: #42a7f5;}</style>,null,,,,,,,,,,,
302.3000011444090,,blue_learn_choice,529267,,,<p style='color: #42a7f5'>jhjhj</p><p style='color: #42a7f5'>jhjhj<style>body {background-color: #42a7f5;}</style><h1>Is the value of this scene higher than the last one?</h1><br><br><h1>Press '1' for lower,'2' for higher</h1>,49,,,,,,,,,,,,,
null,,you_chose_lower,531269,,,<p style='color: #42a7f5'>jhjhj</p><p style='color: #42a7f5'>jhjhj<style>body {background-color: #42a7f5;}</style><h1>You chose lower</h1>,null,,,,,,,,,,,,,,
null,,blue_learn_scene,532270,,,<p style='color: #42a7f5'>jhjhj</p><br><br><p style='color: #42a7f5'>jhjhj</p><img style='position:absolute;top: 50%;right: 50%;transform: translate(50%,-50%);z-score:-1;width: 450px;height: 450px;' src='../static/sis_landscape_images/background_138.jpg' height='250'><img style='position:absolute;top: 50%;right: 50%;transform: translate(50%,-50%);z-score:0;width: 250px;height: 250px;' src='../static/images/beverage_279.jpg' height='250'><style>body {background-color: #42a7f5;}</style>,null,,,,,,,,,,,,
null,,blue_learn_sceneVal,534273,,,<img src='../static/images/45.png' style='position:absolute;top: 15%;right: 50%;transform: translate(50%,-50%);width: 300px;height: 140px;'><p style='color: #42a7f5'>jhjhj</p><br><br><p style='color: #42a7f5'>jhjhj</p><img style='position:absolute;top: 50%;right: 50%;transform: translate(50%,-50%);z-score:-1;width: 450px;height: 450px;' src='../static/sis_landscape_images/background_138.jpg' height='250'><img style='position:absolute;top: 50%;right: 50%;transform: translate(50%,-50%);z-score:0;width: 250px;height: 250px;' src='../static/images/beverage_279.jpg' height='250'><style>body {background-color: #42a7f5;}</style>,null,,,,,,,,,,,
371.4000015258790,,blue_learn_choice,537276,,,<p style='color: #42a7f5'>jhjhj</p><p style='color: #42a7f5'>jhjhj<style>body {background-color: #42a7f5;}</style><h1>Is the value of this scene higher than the last one?</h1><br><br><h1>Press '1' for lower,'2' for higher</h1>,49,,,,,,,,,,,,,
null,,you_chose_lower,539278,,,<p style='color: #42a7f5'>jhjhj</p><p style='color: #42a7f5'>jhjhj<style>body {background-color: #42a7f5;}</style><h1>You chose lower</h1>,null,,,,,,,,,,,,,,
null,,blue_learn_scene,540280,,,<p style='color: #42a7f5'>jhjhj</p><br><br><p style='color: #42a7f5'>jhjhj</p><img style='position:absolute;top: 50%;right: 50%;transform: translate(50%,-50%);z-score:-1;width: 450px;height: 450px;' src='../static/sis_landscape_images/background_71.jpg' height='250'><img style='position:absolute;top: 50%;right: 50%;transform: translate(50%,-50%);z-score:0;width: 250px;height: 250px;' src='../static/images/beverage_276.jpg' height='250'><style>body {background-color: #42a7f5;}</style>,null,,,,,,,,,,,,
null,,blue_learn_sceneVal,542283,,,<img src='../static/images/41.png' style='position:absolute;top: 15%;right: 50%;transform: translate(50%,-50%);width: 300px;height: 140px;'><p style='color: #42a7f5'>jhjhj</p><br><br><p style='color: #42a7f5'>jhjhj</p><img style='position:absolute;top: 50%;right: 50%;transform: translate(50%,-50%);z-score:-1;width: 450px;height: 450px;' src='../static/sis_landscape_images/background_71.jpg' height='250'><img style='position:absolute;top: 50%;right: 50%;transform: translate(50%,-50%);z-score:0;width: 250px;height: 250px;' src='../static/images/beverage_276.jpg' height='250'><style>body {background-color: #42a7f5;}</style>,null,,,,,,,,,,,
513.6999988555910,,blue_learn_choice,545285,,,<p style='color: #42a7f5'>jhjhj</p><p style='color: #42a7f5'>jhjhj<style>body {background-color: #42a7f5;}</style><h1>Is the value of this scene higher than the last one?</h1><br><br><h1>Press '1' for lower,'2' for higher</h1>,49,,,,,,,,,,,,,
null,,you_chose_lower,547287,,,<p style='color: #42a7f5'>jhjhj</p><p style='color: #42a7f5'>jhjhj<style>body {background-color: #42a7f5;}</style><h1>You chose lower</h1>,null,,,,,,,,,,,,,,
null,,blue_learn_scene,548289,,,<p style='color: #42a7f5'>jhjhj</p><br><br><p style='color: #42a7f5'>jhjhj</p><img style='position:absolute;top: 50%;right: 50%;transform: translate(50%,-50%);z-score:-1;width: 450px;height: 450px;' src='../static/sis_landscape_images/background_24.jpg' height='250'><img style='position:absolute;top: 50%;right: 50%;transform: translate(50%,-50%);z-score:0;width: 250px;height: 250px;' src='../static/images/beverage_204.jpg' height='250'><style>body {background-color: #42a7f5;}</style>,null,,,,,,,,,,,,
null,,blue_learn_sceneVal,550291,,,<img src='../static/images/40.png' style='position:absolute;top: 15%;right: 50%;transform: translate(50%,-50%);width: 300px;height: 140px;'><p style='color: #42a7f5'>jhjhj</p><br><br><p style='color: #42a7f5'>jhjhj</p><img style='position:absolute;top: 50%;right: 50%;transform: translate(50%,-50%);z-score:-1;width: 450px;height: 450px;' src='../static/sis_landscape_images/background_24.jpg' height='250'><img style='position:absolute;top: 50%;right: 50%;transform: translate(50%,-50%);z-score:0;width: 250px;height: 250px;' src='../static/images/beverage_204.jpg' height='250'><style>body {background-color: #42a7f5;}</style>,null,,,,,,,,,,,
457.5999984741210,,blue_learn_choice,553293,,,<p style='color: #42a7f5'>jhjhj</p><p style='color: #42a7f5'>jhjhj<style>body {background-color: #42a7f5;}</style><h1>Is the value of this scene higher than the last one?</h1><br><br><h1>Press '1' for lower,'2' for higher</h1>,49,,,,,,,,,,,,,
null,,you_chose_lower,555296,,,<p style='color: #42a7f5'>jhjhj</p><p style='color: #42a7f5'>jhjhj<style>body {background-color: #42a7f5;}</style><h1>You chose lower</h1>,null,,,,,,,,,,,,,,
null,,blue_learn_scene,556298,,,<p style='color: #42a7f5'>jhjhj</p><br><br><p style='color: #42a7f5'>jhjhj</p><img style='position:absolute;top: 50%;right: 50%;transform: translate(50%,-50%);z-score:-1;width: 450px;height: 450px;' src='../static/sis_landscape_images/background_17.jpg' height='250'><img style='position:absolute;top: 50%;right: 50%;transform: translate(50%,-50%);z-score:0;width: 250px;height: 250px;' src='../static/images/beverage_275.jpg' height='250'><style>body {background-color: #42a7f5;}</style>,null,,,,,,,,,,,,
null,,blue_learn_sceneVal,558301,,,<img src='../static/images/46.png' style='position:absolute;top: 15%;right: 50%;transform: translate(50%,-50%);width: 300px;height: 140px;'><p style='color: #42a7f5'>jhjhj</p><br><br><p style='color: #42a7f5'>jhjhj</p><img style='position:absolute;top: 50%;right: 50%;transform: translate(50%,-50%);z-score:-1;width: 450px;height: 450px;' src='../static/sis_landscape_images/background_17.jpg' height='250'><img style='position:absolute;top: 50%;right: 50%;transform: translate(50%,-50%);z-score:0;width: 250px;height: 250px;' src='../static/images/beverage_275.jpg' height='250'><style>body {background-color: #42a7f5;}</style>,null,,,,,,,,,,,
603.3000011444090,,blue_learn_choice,561304,,,<p style='color: #42a7f5'>jhjhj</p><p style='color: #42a7f5'>jhjhj<style>body {background-color: #42a7f5;}</style><h1>Is the value of this scene higher than the last one?</h1><br><br><h1>Press '1' for lower,'2' for higher</h1>,50,,,,,,,,,,,,,
null,,you_chose_higher,563305,,,<p style='color: #42a7f5'>jhjhj</p><p style='color: #42a7f5'>jhjhj<style>body {background-color: #42a7f5;}</style><h1>You chose higher</h1>,null,,,,,,,,,,,,,,
null,,blue_learn_scene,564307,,,<p style='color: #42a7f5'>jhjhj</p><br><br><p style='color: #42a7f5'>jhjhj</p><img style='position:absolute;top: 50%;right: 50%;transform: translate(50%,-50%);z-score:-1;width: 450px;height: 450px;' src='../static/sis_landscape_images/background_149.jpg' height='250'><img style='position:absolute;top: 50%;right: 50%;transform: translate(50%,-50%);z-score:0;width: 250px;height: 250px;' src='../static/images/beverage_212.jpg' height='250'><style>body {background-color: #42a7f5;}</style>,null,,,,,,,,,,,,
null,,blue_learn_sceneVal,566309,,,<img src='../static/images/56.png' style='position:absolute;top: 15%;right: 50%;transform: translate(50%,-50%);width: 300px;height: 140px;'><p style='color: #42a7f5'>jhjhj</p><br><br><p style='color: #42a7f5'>jhjhj</p><img style='position:absolute;top: 50%;right: 50%;transform: translate(50%,-50%);z-score:-1;width: 450px;height: 450px;' src='../static/sis_landscape_images/background_149.jpg' height='250'><img style='position:absolute;top: 50%;right: 50%;transform: translate(50%,-50%);z-score:0;width: 250px;height: 250px;' src='../static/images/beverage_212.jpg' height='250'><style>body {background-color: #42a7f5;}</style>,null,,,,,,,,,,,
1024.3999996185300,,blue_learn_choice,569312,,,<p style='color: #42a7f5'>jhjhj</p><p style='color: #42a7f5'>jhjhj<style>body {background-color: #42a7f5;}</style><h1>Is the value of this scene higher than the last one?</h1><br><br><h1>Press '1' for lower,'2' for higher</h1>,50,,,,,,,,,,,,,
null,,you_chose_higher,571313,,,<p style='color: #42a7f5'>jhjhj</p><p style='color: #42a7f5'>jhjhj<style>body {background-color: #42a7f5;}</style><h1>You chose higher</h1>,null,,,,,,,,,,,,,,
null,,blue_learn_scene,572316,,,<p style='color: #42a7f5'>jhjhj</p><br><br><p style='color: #42a7f5'>jhjhj</p><img style='position:absolute;top: 50%;right: 50%;transform: translate(50%,-50%);z-score:-1;width: 450px;height: 450px;' src='../static/sis_landscape_images/background_86.jpg' height='250'><img style='position:absolute;top: 50%;right: 50%;transform: translate(50%,-50%);z-score:0;width: 250px;height: 250px;' src='../static/images/beverage_110.jpg' height='250'><style>body {background-color: #42a7f5;}</style>,null,,,,,,,,,,,,
null,,blue_learn_sceneVal,574318,,,<img src='../static/images/42.png' style='position:absolute;top: 15%;right: 50%;transform: translate(50%,-50%);width: 300px;height: 140px;'><p style='color: #42a7f5'>jhjhj</p><br><br><p style='color: #42a7f5'>jhjhj</p><img style='position:absolute;top: 50%;right: 50%;transform: translate(50%,-50%);z-score:-1;width: 450px;height: 450px;' src='../static/sis_landscape_images/background_86.jpg' height='250'><img style='position:absolute;top: 50%;right: 50%;transform: translate(50%,-50%);z-score:0;width: 250px;height: 250px;' src='../static/images/beverage_110.jpg' height='250'><style>body {background-color: #42a7f5;}</style>,null,,,,,,,,,,,
298.20000076293900,,blue_learn_choice,577321,,,<p style='color: #42a7f5'>jhjhj</p><p style='color: #42a7f5'>jhjhj<style>body {background-color: #42a7f5;}</style><h1>Is the value of this scene higher than the last one?</h1><br><br><h1>Press '1' for lower,'2' for higher</h1>,49,,,,,,,,,,,,,
null,,you_chose_lower,579323,,,<p style='color: #42a7f5'>jhjhj</p><p style='color: #42a7f5'>jhjhj<style>body {background-color: #42a7f5;}</style><h1>You chose lower</h1>,null,,,,,,,,,,,,,,
null,,blue_learn_scene,580325,,,<p style='color: #42a7f5'>jhjhj</p><br><br><p style='color: #42a7f5'>jhjhj</p><img style='position:absolute;top: 50%;right: 50%;transform: translate(50%,-50%);z-score:-1;width: 450px;height: 450px;' src='../static/sis_landscape_images/background_28.jpg' height='250'><img style='position:absolute;top: 50%;right: 50%;transform: translate(50%,-50%);z-score:0;width: 250px;height: 250px;' src='../static/images/1_tequila_glass_8.jpg' height='250'><style>body {background-color: #42a7f5;}</style>,null,,,,,,,,,,,,
null,,blue_learn_sceneVal,582328,,,<img src='../static/images/22.png' style='position:absolute;top: 15%;right: 50%;transform: translate(50%,-50%);width: 300px;height: 140px;'><p style='color: #42a7f5'>jhjhj</p><br><br><p style='color: #42a7f5'>jhjhj</p><img style='position:absolute;top: 50%;right: 50%;transform: translate(50%,-50%);z-score:-1;width: 450px;height: 450px;' src='../static/sis_landscape_images/background_28.jpg' height='250'><img style='position:absolute;top: 50%;right: 50%;transform: translate(50%,-50%);z-score:0;width: 250px;height: 250px;' src='../static/images/1_tequila_glass_8.jpg' height='250'><style>body {background-color: #42a7f5;}</style>,null,,,,,,,,,,,
647.5,,blue_learn_choice,585330,,,<p style='color: #42a7f5'>jhjhj</p><p style='color: #42a7f5'>jhjhj<style>body {background-color: #42a7f5;}</style><h1>Is the value of this scene higher than the last one?</h1><br><br><h1>Press '1' for lower,'2' for higher</h1>,49,,,,,,,,,,,,,
null,,you_chose_lower,587333,,,<p style='color: #42a7f5'>jhjhj</p><p style='color: #42a7f5'>jhjhj<style>body {background-color: #42a7f5;}</style><h1>You chose lower</h1>,null,,,,,,,,,,,,,,
null,,blue_learn_scene,588336,,,<p style='color: #42a7f5'>jhjhj</p><br><br><p style='color: #42a7f5'>jhjhj</p><img style='position:absolute;top: 50%;right: 50%;transform: translate(50%,-50%);z-score:-1;width: 450px;height: 450px;' src='../static/sis_landscape_images/background_20.jpg' height='250'><img style='position:absolute;top: 50%;right: 50%;transform: translate(50%,-50%);z-score:0;width: 250px;height: 250px;' src='../static/images/1_tequila_glass_17.jpg' height='250'><style>body {background-color: #42a7f5;}</style>,null,,,,,,,,,,,,
null,,blue_learn_sceneVal,590338,,,<img src='../static/images/32.png' style='position:absolute;top: 15%;right: 50%;transform: translate(50%,-50%);width: 300px;height: 140px;'><p style='color: #42a7f5'>jhjhj</p><br><br><p style='color: #42a7f5'>jhjhj</p><img style='position:absolute;top: 50%;right: 50%;transform: translate(50%,-50%);z-score:-1;width: 450px;height: 450px;' src='../static/sis_landscape_images/background_20.jpg' height='250'><img style='position:absolute;top: 50%;right: 50%;transform: translate(50%,-50%);z-score:0;width: 250px;height: 250px;' src='../static/images/1_tequila_glass_17.jpg' height='250'><style>body {background-color: #42a7f5;}</style>,null,,,,,,,,,,,
243.89999961853000,,blue_learn_choice,593341,,,<p style='color: #42a7f5'>jhjhj</p><p style='color: #42a7f5'>jhjhj<style>body {background-color: #42a7f5;}</style><h1>Is the value of this scene higher than the last one?</h1><br><br><h1>Press '1' for lower,'2' for higher</h1>,50,,,,,,,,,,,,,
null,,you_chose_higher,595343,,,<p style='color: #42a7f5'>jhjhj</p><p style='color: #42a7f5'>jhjhj<style>body {background-color: #42a7f5;}</style><h1>You chose higher</h1>,null,,,,,,,,,,,,,,
null,,blue_learn_scene,596345,,,<p style='color: #42a7f5'>jhjhj</p><br><br><p style='color: #42a7f5'>jhjhj</p><img style='position:absolute;top: 50%;right: 50%;transform: translate(50%,-50%);z-score:-1;width: 450px;height: 450px;' src='../static/sis_landscape_images/background_97.jpg' height='250'><img style='position:absolute;top: 50%;right: 50%;transform: translate(50%,-50%);z-score:0;width: 250px;height: 250px;' src='../static/images/1_tequila_glass_21.jpg' height='250'><style>body {background-color: #42a7f5;}</style>,null,,,,,,,,,,,,
null,,blue_learn_sceneVal,598348,,,<img src='../static/images/34.png' style='position:absolute;top: 15%;right: 50%;transform: translate(50%,-50%);width: 300px;height: 140px;'><p style='color: #42a7f5'>jhjhj</p><br><br><p style='color: #42a7f5'>jhjhj</p><img style='position:absolute;top: 50%;right: 50%;transform: translate(50%,-50%);z-score:-1;width: 450px;height: 450px;' src='../static/sis_landscape_images/background_97.jpg' height='250'><img style='position:absolute;top: 50%;right: 50%;transform: translate(50%,-50%);z-score:0;width: 250px;height: 250px;' src='../static/images/1_tequila_glass_21.jpg' height='250'><style>body {background-color: #42a7f5;}</style>,null,,,,,,,,,,,
578.1999988555910,,blue_learn_choice,601350,,,<p style='color: #42a7f5'>jhjhj</p><p style='color: #42a7f5'>jhjhj<style>body {background-color: #42a7f5;}</style><h1>Is the value of this scene higher than the last one?</h1><br><br><h1>Press '1' for lower,'2' for higher</h1>,50,,,,,,,,,,,,,
null,,you_chose_higher,603352,,,<p style='color: #42a7f5'>jhjhj</p><p style='color: #42a7f5'>jhjhj<style>body {background-color: #42a7f5;}</style><h1>You chose higher</h1>,null,,,,,,,,,,,,,,
null,,blue_learn_scene,604355,,,<p style='color: #42a7f5'>jhjhj</p><br><br><p style='color: #42a7f5'>jhjhj</p><img style='position:absolute;top: 50%;right: 50%;transform: translate(50%,-50%);z-score:-1;width: 450px;height: 450px;' src='../static/sis_landscape_images/background_82.jpg' height='250'><img style='position:absolute;top: 50%;right: 50%;transform: translate(50%,-50%);z-score:0;width: 250px;height: 250px;' src='../static/images/1_tequila_glass_18.jpg' height='250'><style>body {background-color: #42a7f5;}</style>,null,,,,,,,,,,,,
null,,blue_learn_sceneVal,606357,,,<img src='../static/images/26.png' style='position:absolute;top: 15%;right: 50%;transform: translate(50%,-50%);width: 300px;height: 140px;'><p style='color: #42a7f5'>jhjhj</p><br><br><p style='color: #42a7f5'>jhjhj</p><img style='position:absolute;top: 50%;right: 50%;transform: translate(50%,-50%);z-score:-1;width: 450px;height: 450px;' src='../static/sis_landscape_images/background_82.jpg' height='250'><img style='position:absolute;top: 50%;right: 50%;transform: translate(50%,-50%);z-score:0;width: 250px;height: 250px;' src='../static/images/1_tequila_glass_18.jpg' height='250'><style>body {background-color: #42a7f5;}</style>,null,,,,,,,,,,,
398.8000011444090,,blue_learn_choice,609359,,,<p style='color: #42a7f5'>jhjhj</p><p style='color: #42a7f5'>jhjhj<style>body {background-color: #42a7f5;}</style><h1>Is the value of this scene higher than the last one?</h1><br><br><h1>Press '1' for lower,'2' for higher</h1>,49,,,,,,,,,,,,,
null,,you_chose_lower,611361,,,<p style='color: #42a7f5'>jhjhj</p><p style='color: #42a7f5'>jhjhj<style>body {background-color: #42a7f5;}</style><h1>You chose lower</h1>,null,,,,,,,,,,,,,,
null,,blue_learn_scene,612363,,,<p style='color: #42a7f5'>jhjhj</p><br><br><p style='color: #42a7f5'>jhjhj</p><img style='position:absolute;top: 50%;right: 50%;transform: translate(50%,-50%);z-score:-1;width: 450px;height: 450px;' src='../static/sis_landscape_images/background_168.jpg' height='250'><img style='position:absolute;top: 50%;right: 50%;transform: translate(50%,-50%);z-score:0;width: 250px;height: 250px;' src='../static/images/1_tequila_glass_12.jpg' height='250'><style>body {background-color: #42a7f5;}</style>,null,,,,,,,,,,,,
null,,blue_learn_sceneVal,614367,,,<img src='../static/images/21.png' style='position:absolute;top: 15%;right: 50%;transform: translate(50%,-50%);width: 300px;height: 140px;'><p style='color: #42a7f5'>jhjhj</p><br><br><p style='color: #42a7f5'>jhjhj</p><img style='position:absolute;top: 50%;right: 50%;transform: translate(50%,-50%);z-score:-1;width: 450px;height: 450px;' src='../static/sis_landscape_images/background_168.jpg' height='250'><img style='position:absolute;top: 50%;right: 50%;transform: translate(50%,-50%);z-score:0;width: 250px;height: 250px;' src='../static/images/1_tequila_glass_12.jpg' height='250'><style>body {background-color: #42a7f5;}</style>,null,,,,,,,,,,,
239.70000076293900,,blue_learn_choice,617370,,,<p style='color: #42a7f5'>jhjhj</p><p style='color: #42a7f5'>jhjhj<style>body {background-color: #42a7f5;}</style><h1>Is the value of this scene higher than the last one?</h1><br><br><h1>Press '1' for lower,'2' for higher</h1>,49,,,,,,,,,,,,,
null,,you_chose_lower,619372,,,<p style='color: #42a7f5'>jhjhj</p><p style='color: #42a7f5'>jhjhj<style>body {background-color: #42a7f5;}</style><h1>You chose lower</h1>,null,,,,,,,,,,,,,,
null,,blue_learn_scene,620374,,,<p style='color: #42a7f5'>jhjhj</p><br><br><p style='color: #42a7f5'>jhjhj</p><img style='position:absolute;top: 50%;right: 50%;transform: translate(50%,-50%);z-score:-1;width: 450px;height: 450px;' src='../static/sis_landscape_images/background_25.jpg' height='250'><img style='position:absolute;top: 50%;right: 50%;transform: translate(50%,-50%);z-score:0;width: 250px;height: 250px;' src='../static/images/1_tequila_glass_9.jpg' height='250'><style>body {background-color: #42a7f5;}</style>,null,,,,,,,,,,,,
null,,blue_learn_sceneVal,622376,,,<img src='../static/images/34.png' style='position:absolute;top: 15%;right: 50%;transform: translate(50%,-50%);width: 300px;height: 140px;'><p style='color: #42a7f5'>jhjhj</p><br><br><p style='color: #42a7f5'>jhjhj</p><img style='position:absolute;top: 50%;right: 50%;transform: translate(50%,-50%);z-score:-1;width: 450px;height: 450px;' src='../static/sis_landscape_images/background_25.jpg' height='250'><img style='position:absolute;top: 50%;right: 50%;transform: translate(50%,-50%);z-score:0;width: 250px;height: 250px;' src='../static/images/1_tequila_glass_9.jpg' height='250'><style>body {background-color: #42a7f5;}</style>,null,,,,,,,,,,,
384.5,,blue_learn_choice,625379,,,<p style='color: #42a7f5'>jhjhj</p><p style='color: #42a7f5'>jhjhj<style>body {background-color: #42a7f5;}</style><h1>Is the value of this scene higher than the last one?</h1><br><br><h1>Press '1' for lower,'2' for higher</h1>,50,,,,,,,,,,,,,
null,,you_chose_higher,627382,,,<p style='color: #42a7f5'>jhjhj</p><p style='color: #42a7f5'>jhjhj<style>body {background-color: #42a7f5;}</style><h1>You chose higher</h1>,null,,,,,,,,,,,,,,
null,,blue_learn_scene,628384,,,<p style='color: #42a7f5'>jhjhj</p><br><br><p style='color: #42a7f5'>jhjhj</p><img style='position:absolute;top: 50%;right: 50%;transform: translate(50%,-50%);z-score:-1;width: 450px;height: 450px;' src='../static/sis_landscape_images/background_174.jpg' height='250'><img style='position:absolute;top: 50%;right: 50%;transform: translate(50%,-50%);z-score:0;width: 250px;height: 250px;' src='../static/images/1_tequila_glass_22.jpg' height='250'><style>body {background-color: #42a7f5;}</style>,null,,,,,,,,,,,,
null,,blue_learn_sceneVal,630387,,,<img src='../static/images/24.png' style='position:absolute;top: 15%;right: 50%;transform: translate(50%,-50%);width: 300px;height: 140px;'><p style='color: #42a7f5'>jhjhj</p><br><br><p style='color: #42a7f5'>jhjhj</p><img style='position:absolute;top: 50%;right: 50%;transform: translate(50%,-50%);z-score:-1;width: 450px;height: 450px;' src='../static/sis_landscape_images/background_174.jpg' height='250'><img style='position:absolute;top: 50%;right: 50%;transform: translate(50%,-50%);z-score:0;width: 250px;height: 250px;' src='../static/images/1_tequila_glass_22.jpg' height='250'><style>body {background-color: #42a7f5;}</style>,null,,,,,,,,,,,
508.4000015258790,,blue_learn_choice,633391,,,<p style='color: #42a7f5'>jhjhj</p><p style='color: #42a7f5'>jhjhj<style>body {background-color: #42a7f5;}</style><h1>Is the value of this scene higher than the last one?</h1><br><br><h1>Press '1' for lower,'2' for higher</h1>,49,,,,,,,,,,,,,
null,,you_chose_lower,635393,,,<p style='color: #42a7f5'>jhjhj</p><p style='color: #42a7f5'>jhjhj<style>body {background-color: #42a7f5;}</style><h1>You chose lower</h1>,null,,,,,,,,,,,,,,
null,,blue_learn_scene,636395,,,<p style='color: #42a7f5'>jhjhj</p><br><br><p style='color: #42a7f5'>jhjhj</p><img style='position:absolute;top: 50%;right: 50%;transform: translate(50%,-50%);z-score:-1;width: 450px;height: 450px;' src='../static/sis_landscape_images/background_175.jpg' height='250'><img style='position:absolute;top: 50%;right: 50%;transform: translate(50%,-50%);z-score:0;width: 250px;height: 250px;' src='../static/images/1_tequila_glass_2.jpg' height='250'><style>body {background-color: #42a7f5;}</style>,null,,,,,,,,,,,,
null,,blue_learn_sceneVal,638399,,,<img src='../static/images/37.png' style='position:absolute;top: 15%;right: 50%;transform: translate(50%,-50%);width: 300px;height: 140px;'><p style='color: #42a7f5'>jhjhj</p><br><br><p style='color: #42a7f5'>jhjhj</p><img style='position:absolute;top: 50%;right: 50%;transform: translate(50%,-50%);z-score:-1;width: 450px;height: 450px;' src='../static/sis_landscape_images/background_175.jpg' height='250'><img style='position:absolute;top: 50%;right: 50%;transform: translate(50%,-50%);z-score:0;width: 250px;height: 250px;' src='../static/images/1_tequila_glass_2.jpg' height='250'><style>body {background-color: #42a7f5;}</style>,null,,,,,,,,,,,
322.8999996185300,,blue_learn_choice,641413,,,<p style='color: #42a7f5'>jhjhj</p><p style='color: #42a7f5'>jhjhj<style>body {background-color: #42a7f5;}</style><h1>Is the value of this scene higher than the last one?</h1><br><br><h1>Press '1' for lower,'2' for higher</h1>,50,,,,,,,,,,,,,
null,,you_chose_higher,643415,,,<p style='color: #42a7f5'>jhjhj</p><p style='color: #42a7f5'>jhjhj<style>body {background-color: #42a7f5;}</style><h1>You chose higher</h1>,null,,,,,,,,,,,,,,
null,,blue_learn_scene,644427,,,<p style='color: #42a7f5'>jhjhj</p><br><br><p style='color: #42a7f5'>jhjhj</p><img style='position:absolute;top: 50%;right: 50%;transform: translate(50%,-50%);z-score:-1;width: 450px;height: 450px;' src='../static/sis_landscape_images/background_147.jpg' height='250'><img style='position:absolute;top: 50%;right: 50%;transform: translate(50%,-50%);z-score:0;width: 250px;height: 250px;' src='../static/images/1_tequila_glass_6.jpg' height='250'><style>body {background-color: #42a7f5;}</style>,null,,,,,,,,,,,,
null,,blue_learn_sceneVal,646430,,,<img src='../static/images/28.png' style='position:absolute;top: 15%;right: 50%;transform: translate(50%,-50%);width: 300px;height: 140px;'><p style='color: #42a7f5'>jhjhj</p><br><br><p style='color: #42a7f5'>jhjhj</p><img style='position:absolute;top: 50%;right: 50%;transform: translate(50%,-50%);z-score:-1;width: 450px;height: 450px;' src='../static/sis_landscape_images/background_147.jpg' height='250'><img style='position:absolute;top: 50%;right: 50%;transform: translate(50%,-50%);z-score:0;width: 250px;height: 250px;' src='../static/images/1_tequila_glass_6.jpg' height='250'><style>body {background-color: #42a7f5;}</style>,null,,,,,,,,,,,
397.5,,blue_learn_choice,649432,,,<p style='color: #42a7f5'>jhjhj</p><p style='color: #42a7f5'>jhjhj<style>body {background-color: #42a7f5;}</style><h1>Is the value of this scene higher than the last one?</h1><br><br><h1>Press '1' for lower,'2' for higher</h1>,50,,,,,,,,,,,,,
null,,you_chose_higher,651434,,,<p style='color: #42a7f5'>jhjhj</p><p style='color: #42a7f5'>jhjhj<style>body {background-color: #42a7f5;}</style><h1>You chose higher</h1>,null,,,,,,,,,,,,,,
null,,blue_learn_scene,652436,,,<p style='color: #42a7f5'>jhjhj</p><br><br><p style='color: #42a7f5'>jhjhj</p><img style='position:absolute;top: 50%;right: 50%;transform: translate(50%,-50%);z-score:-1;width: 450px;height: 450px;' src='../static/sis_landscape_images/background_63.jpg' height='250'><img style='position:absolute;top: 50%;right: 50%;transform: translate(50%,-50%);z-score:0;width: 250px;height: 250px;' src='../static/images/beverage_1.jpg' height='250'><style>body {background-color: #42a7f5;}</style>,null,,,,,,,,,,,,
null,,blue_learn_sceneVal,654440,,,<img src='../static/images/88.png' style='position:absolute;top: 15%;right: 50%;transform: translate(50%,-50%);width: 300px;height: 140px;'><p style='color: #42a7f5'>jhjhj</p><br><br><p style='color: #42a7f5'>jhjhj</p><img style='position:absolute;top: 50%;right: 50%;transform: translate(50%,-50%);z-score:-1;width: 450px;height: 450px;' src='../static/sis_landscape_images/background_63.jpg' height='250'><img style='position:absolute;top: 50%;right: 50%;transform: translate(50%,-50%);z-score:0;width: 250px;height: 250px;' src='../static/images/beverage_1.jpg' height='250'><style>body {background-color: #42a7f5;}</style>,null,,,,,,,,,,,
321.29999923706100,,blue_learn_choice,657443,,,<p style='color: #42a7f5'>jhjhj</p><p style='color: #42a7f5'>jhjhj<style>body {background-color: #42a7f5;}</style><h1>Is the value of this scene higher than the last one?</h1><br><br><h1>Press '1' for lower,'2' for higher</h1>,50,,,,,,,,,,,,,
null,,you_chose_higher,659446,,,<p style='color: #42a7f5'>jhjhj</p><p style='color: #42a7f5'>jhjhj<style>body {background-color: #42a7f5;}</style><h1>You chose higher</h1>,null,,,,,,,,,,,,,,
null,,blue_learn_scene,660448,,,<p style='color: #42a7f5'>jhjhj</p><br><br><p style='color: #42a7f5'>jhjhj</p><img style='position:absolute;top: 50%;right: 50%;transform: translate(50%,-50%);z-score:-1;width: 450px;height: 450px;' src='../static/sis_landscape_images/background_172.jpg' height='250'><img style='position:absolute;top: 50%;right: 50%;transform: translate(50%,-50%);z-score:0;width: 250px;height: 250px;' src='../static/images/beverage_318.jpg' height='250'><style>body {background-color: #42a7f5;}</style>,null,,,,,,,,,,,,
null,,blue_learn_sceneVal,662450,,,<img src='../static/images/87.png' style='position:absolute;top: 15%;right: 50%;transform: translate(50%,-50%);width: 300px;height: 140px;'><p style='color: #42a7f5'>jhjhj</p><br><br><p style='color: #42a7f5'>jhjhj</p><img style='position:absolute;top: 50%;right: 50%;transform: translate(50%,-50%);z-score:-1;width: 450px;height: 450px;' src='../static/sis_landscape_images/background_172.jpg' height='250'><img style='position:absolute;top: 50%;right: 50%;transform: translate(50%,-50%);z-score:0;width: 250px;height: 250px;' src='../static/images/beverage_318.jpg' height='250'><style>body {background-color: #42a7f5;}</style>,null,,,,,,,,,,,
515.8999996185300,,blue_learn_choice,665452,,,<p style='color: #42a7f5'>jhjhj</p><p style='color: #42a7f5'>jhjhj<style>body {background-color: #42a7f5;}</style><h1>Is the value of this scene higher than the last one?</h1><br><br><h1>Press '1' for lower,'2' for higher</h1>,49,,,,,,,,,,,,,
null,,you_chose_lower,667454,,,<p style='color: #42a7f5'>jhjhj</p><p style='color: #42a7f5'>jhjhj<style>body {background-color: #42a7f5;}</style><h1>You chose lower</h1>,null,,,,,,,,,,,,,,
null,,blue_learn_scene,668457,,,<p style='color: #42a7f5'>jhjhj</p><br><br><p style='color: #42a7f5'>jhjhj</p><img style='position:absolute;top: 50%;right: 50%;transform: translate(50%,-50%);z-score:-1;width: 450px;height: 450px;' src='../static/sis_landscape_images/background_42.jpg' height='250'><img style='position:absolute;top: 50%;right: 50%;transform: translate(50%,-50%);z-score:0;width: 250px;height: 250px;' src='../static/images/beverage_194.jpg' height='250'><style>body {background-color: #42a7f5;}</style>,null,,,,,,,,,,,,
null,,blue_learn_sceneVal,670459,,,<img src='../static/images/95.png' style='position:absolute;top: 15%;right: 50%;transform: translate(50%,-50%);width: 300px;height: 140px;'><p style='color: #42a7f5'>jhjhj</p><br><br><p style='color: #42a7f5'>jhjhj</p><img style='position:absolute;top: 50%;right: 50%;transform: translate(50%,-50%);z-score:-1;width: 450px;height: 450px;' src='../static/sis_landscape_images/background_42.jpg' height='250'><img style='position:absolute;top: 50%;right: 50%;transform: translate(50%,-50%);z-score:0;width: 250px;height: 250px;' src='../static/images/beverage_194.jpg' height='250'><style>body {background-color: #42a7f5;}</style>,null,,,,,,,,,,,
365.8999996185300,,blue_learn_choice,673462,,,<p style='color: #42a7f5'>jhjhj</p><p style='color: #42a7f5'>jhjhj<style>body {background-color: #42a7f5;}</style><h1>Is the value of this scene higher than the last one?</h1><br><br><h1>Press '1' for lower,'2' for higher</h1>,50,,,,,,,,,,,,,
null,,you_chose_higher,675464,,,<p style='color: #42a7f5'>jhjhj</p><p style='color: #42a7f5'>jhjhj<style>body {background-color: #42a7f5;}</style><h1>You chose higher</h1>,null,,,,,,,,,,,,,,
null,,blue_learn_scene,676466,,,<p style='color: #42a7f5'>jhjhj</p><br><br><p style='color: #42a7f5'>jhjhj</p><img style='position:absolute;top: 50%;right: 50%;transform: translate(50%,-50%);z-score:-1;width: 450px;height: 450px;' src='../static/sis_landscape_images/background_136.jpg' height='250'><img style='position:absolute;top: 50%;right: 50%;transform: translate(50%,-50%);z-score:0;width: 250px;height: 250px;' src='../static/images/beverage_235.jpg' height='250'><style>body {background-color: #42a7f5;}</style>,null,,,,,,,,,,,,
null,,blue_learn_sceneVal,678468,,,<img src='../static/images/86.png' style='position:absolute;top: 15%;right: 50%;transform: translate(50%,-50%);width: 300px;height: 140px;'><p style='color: #42a7f5'>jhjhj</p><br><br><p style='color: #42a7f5'>jhjhj</p><img style='position:absolute;top: 50%;right: 50%;transform: translate(50%,-50%);z-score:-1;width: 450px;height: 450px;' src='../static/sis_landscape_images/background_136.jpg' height='250'><img style='position:absolute;top: 50%;right: 50%;transform: translate(50%,-50%);z-score:0;width: 250px;height: 250px;' src='../static/images/beverage_235.jpg' height='250'><style>body {background-color: #42a7f5;}</style>,null,,,,,,,,,,,
501.6000003814700,,blue_learn_choice,681471,,,<p style='color: #42a7f5'>jhjhj</p><p style='color: #42a7f5'>jhjhj<style>body {background-color: #42a7f5;}</style><h1>Is the value of this scene higher than the last one?</h1><br><br><h1>Press '1' for lower,'2' for higher</h1>,49,,,,,,,,,,,,,
null,,you_chose_lower,683473,,,<p style='color: #42a7f5'>jhjhj</p><p style='color: #42a7f5'>jhjhj<style>body {background-color: #42a7f5;}</style><h1>You chose lower</h1>,null,,,,,,,,,,,,,,
null,,blue_learn_scene,684475,,,<p style='color: #42a7f5'>jhjhj</p><br><br><p style='color: #42a7f5'>jhjhj</p><img style='position:absolute;top: 50%;right: 50%;transform: translate(50%,-50%);z-score:-1;width: 450px;height: 450px;' src='../static/sis_landscape_images/background_155.jpg' height='250'><img style='position:absolute;top: 50%;right: 50%;transform: translate(50%,-50%);z-score:0;width: 250px;height: 250px;' src='../static/images/beverage_145.jpg' height='250'><style>body {background-color: #42a7f5;}</style>,null,,,,,,,,,,,,
null,,blue_learn_sceneVal,686478,,,<img src='../static/images/85.png' style='position:absolute;top: 15%;right: 50%;transform: translate(50%,-50%);width: 300px;height: 140px;'><p style='color: #42a7f5'>jhjhj</p><br><br><p style='color: #42a7f5'>jhjhj</p><img style='position:absolute;top: 50%;right: 50%;transform: translate(50%,-50%);z-score:-1;width: 450px;height: 450px;' src='../static/sis_landscape_images/background_155.jpg' height='250'><img style='position:absolute;top: 50%;right: 50%;transform: translate(50%,-50%);z-score:0;width: 250px;height: 250px;' src='../static/images/beverage_145.jpg' height='250'><style>body {background-color: #42a7f5;}</style>,null,,,,,,,,,,,
370.8999996185300,,blue_learn_choice,689480,,,<p style='color: #42a7f5'>jhjhj</p><p style='color: #42a7f5'>jhjhj<style>body {background-color: #42a7f5;}</style><h1>Is the value of this scene higher than the last one?</h1><br><br><h1>Press '1' for lower,'2' for higher</h1>,49,,,,,,,,,,,,,
null,,you_chose_lower,691483,,,<p style='color: #42a7f5'>jhjhj</p><p style='color: #42a7f5'>jhjhj<style>body {background-color: #42a7f5;}</style><h1>You chose lower</h1>,null,,,,,,,,,,,,,,
null,,blue_learn_scene,692486,,,<p style='color: #42a7f5'>jhjhj</p><br><br><p style='color: #42a7f5'>jhjhj</p><img style='position:absolute;top: 50%;right: 50%;transform: translate(50%,-50%);z-score:-1;width: 450px;height: 450px;' src='../static/sis_landscape_images/background_153.jpg' height='250'><img style='position:absolute;top: 50%;right: 50%;transform: translate(50%,-50%);z-score:0;width: 250px;height: 250px;' src='../static/images/beverage_253.jpg' height='250'><style>body {background-color: #42a7f5;}</style>,null,,,,,,,,,,,,
null,,blue_learn_sceneVal,694489,,,<img src='../static/images/90.png' style='position:absolute;top: 15%;right: 50%;transform: translate(50%,-50%);width: 300px;height: 140px;'><p style='color: #42a7f5'>jhjhj</p><br><br><p style='color: #42a7f5'>jhjhj</p><img style='position:absolute;top: 50%;right: 50%;transform: translate(50%,-50%);z-score:-1;width: 450px;height: 450px;' src='../static/sis_landscape_images/background_153.jpg' height='250'><img style='position:absolute;top: 50%;right: 50%;transform: translate(50%,-50%);z-score:0;width: 250px;height: 250px;' src='../static/images/beverage_253.jpg' height='250'><style>body {background-color: #42a7f5;}</style>,null,,,,,,,,,,,
445.20000076293900,,blue_learn_choice,697506,,,<p style='color: #42a7f5'>jhjhj</p><p style='color: #42a7f5'>jhjhj<style>body {background-color: #42a7f5;}</style><h1>Is the value of this scene higher than the last one?</h1><br><br><h1>Press '1' for lower,'2' for higher</h1>,50,,,,,,,,,,,,,
null,,you_chose_higher,699508,,,<p style='color: #42a7f5'>jhjhj</p><p style='color: #42a7f5'>jhjhj<style>body {background-color: #42a7f5;}</style><h1>You chose higher</h1>,null,,,,,,,,,,,,,,
5582,,intro_choice,705092,,,<div style='margin-left:300px ;margin-right: 300px;text-justify: auto'><p>Great! You will now complete a shorter version of the choice task (2 choices) where your goal is to choose the higher value photograph of two photographs presented to you.</p><p>You have a maximum of 5 seconds to make your choice. You will not see the value of your choice, this will be tallied at the end of the experiment and included in your payment.</p><p>[press the spacebar to begin]</p></div>,32,,,,,,,,,,,,,
2783.2000007629400,,blue_choice,707876,,,<img style='position:absolute;top: 50%;right: 75%;transform: translate(50%,-50%);z-score:-1;width: 450px;height: 450px;' src='../static/sis_landscape_images/background_230.jpg' height='250'>            <img style='position:absolute;top: 50%;right: 75%;transform: translate(50%,-50%);z-score:0;width: 250px;height: 250px;' src='../static/images/beverage_30.jpg' height='250'>       <img style='position:absolute;top: 50%;right: 25%;transform: translate(50%,-50%);z-score:-1;width: 450px;height: 450px;' src='../static/sis_landscape_images/background_168.jpg' height='250'>            <img style='position:absolute;top: 50%;right: 25%;transform: translate(50%,-50%);z-score:0;width: 250px;height: 250px;' src='../static/images/1_tequila_glass_12.jpg' height='250'><br><h1 style='position:absolute;top: 20%;right: 50%;transform: translate(50%,-50%);width: 300px;height: 140px;'>Press 1 or 2 to choose</h1><style>body {background-color: #42a7f5;}</style>,50,0,,,,,,,,
2514.5,,blue_choice,710392,,,<img style='position:absolute;top: 50%;right: 75%;transform: translate(50%,-50%);z-score:-1;width: 450px;height: 450px;' src='../static/sis_landscape_images/background_155.jpg' height='250'>            <img style='position:absolute;top: 50%;right: 75%;transform: translate(50%,-50%);z-score:0;width: 250px;height: 250px;' src='../static/images/beverage_145.jpg' height='250'>       <img style='position:absolute;top: 50%;right: 25%;transform: translate(50%,-50%);z-score:-1;width: 450px;height: 450px;' src='../static/sis_landscape_images/background_27.jpg' height='250'>            <img style='position:absolute;top: 50%;right: 25%;transform: translate(50%,-50%);z-score:0;width: 250px;height: 250px;' src='../static/images/beverage_225.jpg' height='250'><br><h1 style='position:absolute;top: 20%;right: 50%;transform: translate(50%,-50%);width: 300px;height: 140px;'>Press 1 or 2 to choose</h1><style>body {background-color: #42a7f5;}</style>,50,0,,,,,,,,
1818.599998474120,,blue_choice,712212,,,<img style='position:absolute;top: 50%;right: 75%;transform: translate(50%,-50%);z-score:-1;width: 450px;height: 450px;' src='../static/sis_landscape_images/background_174.jpg' height='250'>            <img style='position:absolute;top: 50%;right: 75%;transform: translate(50%,-50%);z-score:0;width: 250px;height: 250px;' src='../static/images/1_tequila_glass_22.jpg' height='250'>       <img style='position:absolute;top: 50%;right: 25%;transform: translate(50%,-50%);z-score:-1;width: 450px;height: 450px;' src='../static/sis_landscape_images/background_53.jpg' height='250'>            <img style='position:absolute;top: 50%;right: 25%;transform: translate(50%,-50%);z-score:0;width: 250px;height: 250px;' src='../static/images/1_tequila_glass_24.jpg' height='250'><br><h1 style='position:absolute;top: 20%;right: 50%;transform: translate(50%,-50%);width: 300px;height: 140px;'>Press 1 or 2 to choose</h1><style>body {background-color: #42a7f5;}</style>,50,1,,,,,,,,
